time,seconds_elapsed,z,y,x
1725956239952321300,0.1463212890625,0.00989999994635582,-0.01251249946653843,0.002337499987334013
1725956239971055900,0.165055908203125,0.01223750039935112,-0.010037500411272049,0.0085249999538064
1725956239989790500,0.18379052734375,0.0147124994546175,-0.01746249943971634,0.02433750033378601
1725956240008525000,0.202525146484375,0.01347499992698431,-0.016224998980760574,0.02681249938905239
1725956240027259400,0.22125927734375,0.0037124999798834324,-0.005224999971687794,0.015812499448657036
1725956240045994000,0.239993896484375,-0.0035749999806284904,0.002062499988824129,0.0010999999940395355
1725956240064728300,0.258728271484375,-0.010862499475479126,0.011824999935925007,-0.02199999988079071
1725956240083463200,0.277463134765625,-0.010862499475479126,0.002062499988824129,-0.02694999985396862
1725956240102197500,0.296197509765625,-0.0035749999806284904,-0.018699999898672104,-0.007424999959766865
1725956240120932000,0.31493212890625,0.006187499966472387,-0.01251249946653843,0.006049999967217445
1725956240139666700,0.333666748046875,0.011137500405311584,-0.007699999958276749,-0.00989999994635582
1725956240158401000,0.352401123046875,0.006187499966472387,-0.006462499964982271,-0.01966249942779541
1725956240177135600,0.371135498046875,0.006187499966472387,-0.010037500411272049,-0.020899999886751175
1725956240195870000,0.389869873046875,0.018424998968839645,-0.01993750035762787,-0.007424999959766865
1725956240214604500,0.4086044921875,0.02694999985396862,-0.02474999986588955,0.004812499973922968
1725956240233339000,0.4273388671875,0.028187500312924385,-0.01993750035762787,0.01209999993443489
1725956240252073500,0.446073486328125,0.015949999913573265,-0.030937500298023224,0.014574999921023846
1725956240270807800,0.464807861328125,0.0012374999932944775,-0.033275000751018524,0.007287499960511923
1725956240289542400,0.48354248046875,-0.010862499475479126,-0.010037500411272049,0.004812499973922968
1725956240308277000,0.502277099609375,-0.014574999921023846,0.0057749999687075615,0.004812499973922968
1725956240327011600,0.521011474609375,-0.010862499475479126,-0.006462499964982271,0.002337499987334013
1725956240345746000,0.539745849609375,-0.007287499960511923,-0.0015124999918043613,0.006049999967217445
1725956240364480300,0.558480224609375,0.0012374999932944775,-0.02474999986588955,0.00976249948143959
1725956240383214800,0.57721484375,0.00013749999925494194,-0.03451250120997429,0.014574999921023846
1725956240401949200,0.59594921875,-0.002337499987334013,-0.03698749840259552,0.015812499448657036
1725956240420683800,0.614683837890625,-0.002337499987334013,-0.006462499964982271,-0.00989999994635582
1725956240439418400,0.63341845703125,0.00013749999925494194,0.030249999836087227,-0.02447500079870224
1725956240458152700,0.652152587890625,0.002474999986588955,0.014299999922513962,-0.01966249942779541
1725956240476887600,0.670887451171875,0.00989999994635582,-0.030937500298023224,-0.002474999986588955
1725956240495622000,0.689621826171875,0.007424999959766865,-0.03203750029206276,0.002337499987334013
1725956240514356500,0.7083564453125,0.00494999997317791,-0.028462499380111694,0.018287500366568565
1725956240533090800,0.7270908203125,0.006187499966472387,-0.01746249943971634,0.013337500393390656
1725956240551825400,0.745825439453125,0.006187499966472387,0.0057749999687075615,-0.007424999959766865
1725956240570559700,0.764559814453125,0.006187499966472387,0.011824999935925007,-0.00494999997317791
1725956240589294300,0.78329443359375,0.007424999959766865,-0.003987499978393316,0.00976249948143959
1725956240608028700,0.802028564453125,0.007424999959766865,-0.018699999898672104,0.014574999921023846
1725956240626763300,0.82076318359375,0.002474999986588955,0.008249999955296516,0.0085249999538064
1725956240645497600,0.83949755859375,0.0012374999932944775,-0.023512499406933784,0.015812499448657036
1725956240664232200,0.858232177734375,-0.0010999999940395355,-0.01746249943971634,0.013337500393390656
1725956240682966800,0.876966796875,-0.006049999967217445,0.014299999922513962,-0.0037124999798834324
1725956240701701000,0.895701171875,-0.002337499987334013,0.015537500381469727,-0.01347499992698431
1725956240720435700,0.914435791015625,0.0037124999798834324,0.004537499975413084,-0.0147124994546175
1725956240739170000,0.933170166015625,0.00494999997317791,-0.014987500384449959,-0.007424999959766865
1725956240757904600,0.951904541015625,0.0012374999932944775,0.0008249999955296516,-0.007424999959766865
1725956240776639200,0.97063916015625,-0.0010999999940395355,-0.005224999971687794,-0.015949999913573265
1725956240795373600,0.98937353515625,-0.0035749999806284904,-0.007699999958276749,-0.020899999886751175
1725956240814108000,1.00810791015625,0.00013749999925494194,-0.005224999971687794,-0.01966249942779541
1725956240832842800,1.0268427734375,0.00013749999925494194,-0.0015124999918043613,-0.00989999994635582
1725956240851576800,1.045576904296875,0.0012374999932944775,-0.02227500081062317,0.002337499987334013
1725956240870311700,1.064311767578125,0.0012374999932944775,-0.013749999925494194,0.007287499960511923
1725956240889046300,1.08304638671875,0.00989999994635582,0.020487500354647636,0.0010999999940395355
1725956240907780600,1.101780517578125,0.011137500405311584,0.0424874983727932,-0.00013749999925494194
1725956240926515200,1.12051513671875,0.01223750039935112,0.011824999935925007,0.02433750033378601
1725956240945249500,1.13924951171875,0.01223750039935112,-0.0015124999918043613,0.04262499883770943
1725956240963984100,1.157984130859375,0.00989999994635582,-0.008937500417232513,0.02681249938905239
1725956240982718700,1.17671875,0.00989999994635582,-0.005224999971687794,0.010862499475479126
1725956241001453000,1.195453125,0.01347499992698431,-0.01251249946653843,0.02186249941587448
1725956241020187600,1.214187744140625,0.01966249942779541,-0.005224999971687794,0.03657500073313713
1725956241038922200,1.232922119140625,0.02694999985396862,0.015537500381469727,0.02681249938905239
1725956241057656800,1.25165673828125,0.020899999886751175,0.030249999836087227,-0.00013749999925494194
1725956241076391200,1.27039111328125,0.006187499966472387,0.025299999862909317,-0.01966249942779541
1725956241095125800,1.289125732421875,-0.006049999967217445,0.008249999955296516,-0.020899999886751175
1725956241113860400,1.3078603515625,-0.007287499960511923,0.025299999862909317,-0.02447500079870224
1725956241132595000,1.326594970703125,-0.0085249999538064,0.022824998944997787,-0.03423750028014183
1725956241151329300,1.345329345703125,-0.006049999967217445,0.01924999989569187,-0.03671250119805336
1725956241170064000,1.36406396484375,0.00013749999925494194,0.0008249999955296516,-0.02694999985396862
1725956241188798200,1.382798095703125,0.00494999997317791,-0.005224999971687794,-0.01223750039935112
1725956241207532800,1.40153271484375,0.006187499966472387,0.015537500381469727,-0.006187499966472387
1725956241226267400,1.420267333984375,0.008662499487400055,0.008249999955296516,-0.00013749999925494194
1725956241245002000,1.439001953125,0.00494999997317791,0.0057749999687075615,0.006049999967217445
1725956241263736600,1.457736572265625,0.00494999997317791,0.002062499988824129,0.006049999967217445
1725956241282471000,1.476470947265625,0.0012374999932944775,0.0032999999821186066,0.013337500393390656
1725956241301205500,1.49520556640625,0.002474999986588955,-0.0002749999985098839,0.020624998956918716
1725956241319940000,1.513940185546875,0.00494999997317791,0.009487500414252281,0.014574999921023846
1725956241338674400,1.53267431640625,0.007424999959766865,0.01677500084042549,-0.0012374999932944775
1725956241357409000,1.551408935546875,0.008662499487400055,0.008249999955296516,-0.007424999959766865
1725956241376143400,1.570143310546875,0.007424999959766865,-0.025987500324845314,-0.0037124999798834324
1725956241394878000,1.5888779296875,0.008662499487400055,-0.002749999985098839,-0.0012374999932944775
1725956241413612500,1.607612548828125,0.008662499487400055,0.0057749999687075615,-0.00989999994635582
1725956241432347100,1.62634716796875,0.0012374999932944775,0.013062499463558197,-0.018424998968839645
1725956241451081500,1.64508154296875,-0.0035749999806284904,0.009487500414252281,-0.020899999886751175
1725956241469816000,1.663816162109375,-0.002337499987334013,0.0032999999821186066,-0.01347499992698431
1725956241488550700,1.682550537109375,0.00494999997317791,0.013062499463558197,-0.00494999997317791
1725956241507285000,1.701284912109375,0.01347499992698431,0.014299999922513962,0.006049999967217445
1725956241526019300,1.720019287109375,0.0147124994546175,0.0032999999821186066,0.006049999967217445
1725956241544754200,1.738754150390625,0.01347499992698431,0.021724998950958252,-0.01718750037252903
1725956241563488800,1.75748876953125,0.0037124999798834324,0.018012499436736107,-0.028187500312924385
1725956241582223000,1.77622314453125,-0.004812499973922968,0.008249999955296516,-0.02694999985396862
1725956241600958000,1.7949580078125,-0.004812499973922968,0.0057749999687075615,-0.037950001657009125
1725956241619692300,1.8136923828125,-0.0035749999806284904,0.03258749842643738,-0.045237500220537186
1725956241638427000,1.832427001953125,0.0012374999932944775,0.03753750026226044,-0.030662499368190765
1725956241657161200,1.8511611328125,0.007424999959766865,0.022824998944997787,-0.018424998968839645
1725956241675895800,1.869895751953125,0.00494999997317791,0.021724998950958252,-0.018424998968839645
1725956241694630400,1.88863037109375,0.0012374999932944775,0.025299999862909317,-0.018424998968839645
1725956241713365000,1.907364990234375,0.0012374999932944775,0.013062499463558197,-0.01223750039935112
1725956241732099600,1.926099609375,0.00494999997317791,0.004537499975413084,-0.01347499992698431
1725956241750834000,1.944833984375,0.006187499966472387,0.018012499436736107,-0.028187500312924385
1725956241769568500,1.963568603515625,0.007424999959766865,0.04358749836683273,-0.032999999821186066
1725956241788303000,1.98230322265625,0.008662499487400055,0.027775000780820847,-0.008662499487400055
1725956241807037700,2.00103759765625,0.00989999994635582,0.0057749999687075615,0.0170499999076128
1725956241825772000,2.01977197265625,0.010037500411272049,-0.015124999918043613,0.0317624993622303
1725956241844506600,2.038506591796875,0.013612499460577965,-0.013887500390410423,0.0317624993622303
1725956241863241200,2.0572412109375,0.012374999932944775,0.014162499457597733,0.037812501192092896
1725956241881975800,2.075975830078125,0.01484999991953373,0.011824999935925007,0.04647500067949295
1725956241900710100,2.094710205078125,0.013612499460577965,0.016637500375509262,0.04028749838471413
1725956241919444700,2.11344482421875,0.011274999938905239,0.011824999935925007,0.032999999821186066
1725956241938179300,2.132179443359375,0.007562499959021807,-0.010174999944865704,0.03423750028014183
1725956241956914000,2.150913818359375,0.011274999938905239,0.011824999935925007,0.028049999848008156
1725956241975648500,2.1696484375,0.013612499460577965,0.017875000834465027,0.025712499395012856
1725956241994382800,2.1883828125,0.01979999989271164,0.006874999962747097,0.02928750030696392
1725956242013117700,2.20711767578125,0.018562499433755875,-0.004124999977648258,0.028049999848008156
1725956242031852000,2.22585205078125,0.012374999932944775,-0.012649999931454659,0.02447500079870224
1725956242050586600,2.244586669921875,0.011274999938905239,-0.0016499999910593033,0.02199999988079071
1725956242069321000,2.263321044921875,0.012374999932944775,-0.005362499970942736,0.028049999848008156
1725956242088055800,2.282055908203125,0.008799999952316284,0.004399999976158142,0.028049999848008156
1725956242106790100,2.3007900390625,0.007562499959021807,-0.007837500423192978,0.02199999988079071
1725956242125524700,2.319524658203125,0.005087499972432852,-0.016362499445676804,0.01952499896287918
1725956242144259300,2.33825927734375,0.0002749999985098839,0.0056374999694526196,0.0085249999538064
1725956242162994000,2.356993896484375,0.002612499985843897,0.014162499457597733,0.0012374999932944775
1725956242181728300,2.375728271484375,0.002612499985843897,0.002062499988824129,-0.0037124999798834324
1725956242200462800,2.394462890625,0.0002749999985098839,-0.0028874999843537807,-0.00494999997317791
1725956242219197400,2.413197509765625,-0.0034374999813735485,0.006874999962747097,-0.007287499960511923
1725956242237932000,2.43193212890625,0.0013749999925494194,0.013062499463558197,-0.006187499966472387
1725956242256666600,2.45066650390625,-0.0009624999947845936,0.008112499490380287,-0.0037124999798834324
1725956242275401000,2.46940087890625,-0.004674999974668026,-0.0016499999910593033,0.0012374999932944775
1725956242294135800,2.4881357421875,-0.009624999947845936,-0.0004124999977648258,0
1725956242312870100,2.5068701171875,-0.005912499967962503,0.008112499490380287,-0.0037124999798834324
1725956242331604700,2.525604736328125,0.0002749999985098839,0.009349999949336052,0.002474999986588955
1725956242350339300,2.54433935546875,0.005087499972432852,0.0031624999828636646,0.0147124994546175
1725956242369074000,2.563073974609375,0.002612499985843897,0.0056374999694526196,0.01223750039935112
1725956242387808500,2.58180859375,0.0002749999985098839,-0.0004124999977648258,0.0085249999538064
1725956242406543000,2.600543212890625,0.0013749999925494194,-0.015124999918043613,0.020762499421834946
1725956242425277700,2.619277587890625,0.006324999965727329,-0.006599999964237213,0.02447500079870224
1725956242444012300,2.63801220703125,0.008799999952316284,-0.012649999931454659,0.025712499395012856
1725956242462747000,2.656746826171875,0.011274999938905239,-0.007837500423192978,0.023237500339746475
1725956242481481500,2.6754814453125,0.008799999952316284,-0.0004124999977648258,0.02199999988079071
1725956242500216000,2.694216064453125,0.005087499972432852,0.0056374999694526196,0.02928750030696392
1725956242518950700,2.71295068359375,0.0002749999985098839,0.021587500348687172,0.020762499421834946
1725956242537685200,2.731685302734375,-0.004674999974668026,0.013062499463558197,0.0147124994546175
1725956242556419600,2.750419677734375,-0.002199999988079071,-0.004124999977648258,0.004812499973922968
1725956242575154200,2.769154296875,-0.0034374999813735485,0.002062499988824129,-0.006187499966472387
1725956242593888800,2.787888671875,-0.0034374999813735485,0.006874999962747097,-0.01223750039935112
1725956242612623400,2.806623291015625,-0.0009624999947845936,0.0008249999955296516,0
1725956242631357700,2.825357666015625,0.002612499985843897,-0.015124999918043613,0.010999999940395355
1725956242650092500,2.844092529296875,0.002612499985843897,-0.023649999871850014,0.0012374999932944775
1725956242668827000,2.862826904296875,-0.0009624999947845936,-0.005362499970942736,-0.015949999913573265
1725956242687561500,2.8815615234375,-0.0034374999813735485,-0.007837500423192978,-0.01347499992698431
1725956242706296000,2.900296142578125,0.0002749999985098839,0.0056374999694526196,-0.006187499966472387
1725956242725030700,2.91903076171875,0.005087499972432852,0.008112499490380287,0.006049999967217445
1725956242743765200,2.93776513671875,0.002612499985843897,0.002062499988824129,0.02199999988079071
1725956242762499800,2.956499755859375,-0.008387500420212746,0.0008249999955296516,0.015812499448657036
1725956242781234200,2.975234130859375,-0.011962499469518661,0.006874999962747097,-0.00976249948143959
1725956242799968800,2.99396875,-0.014437500387430191,0.008112499490380287,-0.0170499999076128
1725956242818703400,3.012703369140625,-0.009624999947845936,-0.007837500423192978,-0.0085249999538064
1725956242837438000,3.03143798828125,-0.002199999988079071,-0.010174999944865704,-0.0037124999798834324
1725956242856172500,3.050172607421875,0.0002749999985098839,0.0008249999955296516,-0.007287499960511923
1725956242874907000,3.068906982421875,0.0002749999985098839,-0.015124999918043613,-0.01347499992698431
1725956242893641700,3.087641845703125,-0.0009624999947845936,-0.010174999944865704,-0.0170499999076128
1725956242912376300,3.106376220703125,-0.002199999988079071,0.010587500408291817,-0.025712499395012856
1725956242931111000,3.12511083984375,-0.009624999947845936,0.015399999916553497,-0.02199999988079071
1725956242949845500,3.143845458984375,-0.010724999941885471,0.014162499457597733,-0.01952499896287918
1725956242968579800,3.162579833984375,-0.004674999974668026,0.002062499988824129,-0.01952499896287918
1725956242987314700,3.181314697265625,-0.0009624999947845936,-0.008937500417232513,-0.0170499999076128
1725956243006049000,3.200049072265625,0.0002749999985098839,-0.005362499970942736,-0.01347499992698431
1725956243024783600,3.21878369140625,0.0038499999791383743,0.004399999976158142,-0.0037124999798834324
1725956243043518500,3.2375185546875,0.008799999952316284,-0.0028874999843537807,0.006049999967217445
1725956243062252800,3.256252685546875,0.008799999952316284,-0.013887500390410423,0.01347499992698431
1725956243080987600,3.274987548828125,0.008799999952316284,-0.023649999871850014,0.010999999940395355
1725956243099722000,3.293721923828125,0.008799999952316284,-0.012649999931454659,0.0170499999076128
1725956243118456600,3.31245654296875,0.005087499972432852,0.010587500408291817,0.028049999848008156
1725956243137191200,3.331191162109375,0.0013749999925494194,0.004399999976158142,0.032999999821186066
1725956243155925800,3.34992578125,-0.002199999988079071,-0.012649999931454659,0.023237500339746475
1725956243174660000,3.36866015625,-0.0034374999813735485,0.002062499988824129,0.002474999986588955
1725956243193395000,3.38739501953125,-0.004674999974668026,0.017875000834465027,-0.0147124994546175
1725956243212129300,3.40612939453125,-0.002199999988079071,0.017875000834465027,-0.01223750039935112
1725956243230864100,3.424864013671875,0.002612499985843897,-0.005362499970942736,0.006049999967217445
1725956243249598500,3.443598388671875,0.007562499959021807,-0.013887500390410423,0.010999999940395355
1725956243268333000,3.4623330078125,0.008799999952316284,-0.008937500417232513,-0.007287499960511923
1725956243287067600,3.481067626953125,0.006324999965727329,0.004399999976158142,-0.01952499896287918
1725956243305802200,3.49980224609375,0.0013749999925494194,-0.007837500423192978,-0.007287499960511923
1725956243324536600,3.51853662109375,0.0002749999985098839,-0.018699999898672104,0.004812499973922968
1725956243343271400,3.537271484375,0.0002749999985098839,0.0008249999955296516,0.004812499973922968
1725956243362005800,3.556005859375,-0.0009624999947845936,0.009349999949336052,-0.006187499966472387
1725956243380740600,3.57474072265625,-0.0009624999947845936,0.010587500408291817,-0.00494999997317791
1725956243399475200,3.59347509765625,0.0002749999985098839,0.006874999962747097,0
1725956243418209500,3.61220947265625,-0.0034374999813735485,0.0056374999694526196,0.01223750039935112
1725956243436944400,3.6309443359375,-0.0034374999813735485,0.002062499988824129,0.02447500079870224
1725956243455679000,3.649678955078125,0.0013749999925494194,-0.007699999958276749,0.0147124994546175
1725956243474413600,3.66841357421875,0.002612499985843897,-0.0004124999977648258,-0.002474999986588955
1725956243493148200,3.687148193359375,-0.0009624999947845936,-0.008937500417232513,-0.0037124999798834324
1725956243511882800,3.7058828125,-0.004674999974668026,-0.004124999977648258,0.0012374999932944775
1725956243530617300,3.724617431640625,-0.002199999988079071,-0.0028874999843537807,0.0012374999932944775
1725956243549352000,3.74335205078125,0.0002749999985098839,0.002062499988824129,-0.010999999940395355
1725956243568086500,3.76208642578125,-0.002199999988079071,0.011824999935925007,-0.02199999988079071
1725956243586821000,3.780821044921875,-0.0034374999813735485,0.0008249999955296516,-0.018287500366568565
1725956243605555500,3.799555419921875,-0.004674999974668026,0.017875000834465027,-0.023237500339746475
1725956243624290300,3.818290283203125,-0.004674999974668026,0.011824999935925007,-0.0170499999076128
1725956243643025000,3.83702490234375,0.0013749999925494194,0.009349999949336052,-0.0037124999798834324
1725956243661759200,3.85575927734375,0.007562499959021807,-0.007699999958276749,0.004812499973922968
1725956243680493800,3.874493896484375,0.008799999952316284,-0.010174999944865704,0.010999999940395355
1725956243699228700,3.893228759765625,0.007562499959021807,-0.03217500075697899,0.00976249948143959
1725956243717963000,3.911962890625,0.007562499959021807,-0.013887500390410423,0.0012374999932944775
1725956243736697900,3.93069775390625,0.007562499959021807,-0.007699999958276749,0.00976249948143959
1725956243755432200,3.94943212890625,0.005087499972432852,-0.011412499472498894,0.025575000792741776
1725956243774167000,3.9681669921875,0.002612499985843897,0.013062499463558197,0.018287500366568565
1725956243792901600,3.986901611328125,-0.002199999988079071,0.013062499463558197,0.0012374999932944775
1725956243811636200,4.00563623046875,-0.005912499967962503,-0.0004124999977648258,-0.01223750039935112
1725956243830370800,4.024370849609375,-0.008387500420212746,0.008112499490380287,-0.015949999913573265
1725956243849105400,4.04310546875,-0.007149999961256981,0.006874999962747097,-0.01347499992698431
1725956243867840000,4.061840087890625,-0.0009624999947845936,0.015399999916553497,-0.01347499992698431
1725956243886574800,4.080574951171875,0.005087499972432852,0.014162499457597733,-0.00976249948143959
1725956243905309400,4.099309326171875,0.010037500411272049,-0.006599999964237213,0.002474999986588955
1725956243924043800,4.118043701171875,0.010037500411272049,0.010587500408291817,0.002474999986588955
1725956243942778600,4.136778564453125,0.005087499972432852,0.008112499490380287,0.00976249948143959
1725956243961513000,4.155512939453125,-0.0009624999947845936,0.0008249999955296516,0.010999999940395355
1725956243980247800,4.174247802734375,-0.004674999974668026,0.004399999976158142,0
1725956243998982100,4.192982177734375,-0.008387500420212746,0.004399999976158142,-0.0012374999932944775
1725956244017717000,4.211717041015625,-0.008387500420212746,0.013062499463558197,-0.002474999986588955
1725956244036451600,4.23045166015625,-0.009487500414252281,0.016637500375509262,0.004812499973922968
1725956244055186000,4.24918603515625,-0.007149999961256981,0.025162499397993088,0.010999999940395355
1725956244073920800,4.267920654296875,-0.004674999974668026,0.05211250111460686,0.01347499992698431
1725956244092655400,4.2866552734375,0.005087499972432852,0.05458749830722809,0.020762499421834946
1725956244111390000,4.305389892578125,0.02227500081062317,0.06558749824762344,0.04647500067949295
1725956244130124300,4.324124267578125,0.038087498396635056,0.05335000157356262,0.11110000312328339
1725956244148859100,4.342859130859375,0.06737499684095383,0.030112499371170998,0.22481249272823334
1725956244167594000,4.361593994140625,0.08208750188350677,0.06435000151395798,0.4081000089645386
1725956244186328300,4.380328369140625,0.060087498277425766,0.227974995970726,0.5924875140190125
1725956244205063200,4.399063232421875,0.05156249925494194,0.46502500772476196,0.7647749781608582
1725956244223797500,4.417797607421875,0.025849999859929085,0.5885000228881836,1.031112551689148
1725956244242532400,4.436532470703125,0.05403750017285347,0.6373124718666077,1.3890249729156494
1725956244261267000,4.455266845703125,0.0906125009059906,0.6080250144004822,1.8606499433517456
1725956244280001500,4.47400146484375,0.05884999781847,0.5297874808311462,2.1575124263763428
1725956244298736000,4.492736083984375,-0.007149999961256981,0.7240750193595886,2.2149875164031982
1725956244317470700,4.511470703125,-0.08401250094175339,0.8523625135421753,2.2527999877929688
1725956244336205300,4.530205322265625,-0.147537499666214,0.7056499719619751,2.368849992752075
1725956244354939600,4.548939697265625,-0.22577500343322754,0.6385499835014343,2.4788498878479004
1725956244373674500,4.567674560546875,-0.27953749895095825,0.5615500211715698,2.4935624599456787
1725956244392409000,4.5864091796875,-0.23196250200271606,0.4577375054359436,2.375037431716919
1725956244411143700,4.605143798828125,-0.147537499666214,0.39668750762939453,2.3053250312805176
1725956244429878500,4.62387841796875,-0.1256749927997589,0.27816250920295715,2.3053250312805176
1725956244448612900,4.64261279296875,-0.19648750126361847,0.08139999955892563,2.032937526702881
1725956244467347500,4.661347412109375,-0.27348750829696655,-0.07246249914169312,1.7115999460220337
1725956244486082000,4.68008203125,-0.3455374836921692,-0.32903748750686646,1.3572624921798706
1725956244504817000,4.69881689453125,-0.3821125030517578,-0.947237491607666,0.9944000244140625
1725956244523551500,4.717551513671875,-0.42858749628067017,-1.5727249383926392,0.5069624781608582
1725956244542286000,4.7362861328125,-0.49334999918937683,-1.9478249549865723,-0.20281249284744263
1725956244561020700,4.755020751953125,-0.551925003528595,-2.0626375675201416,-1.1569249629974365
1725956244579755000,4.773755126953125,-0.4908750057220459,-2.0810625553131104,-2.1807498931884766
1725956244598489900,4.79248974609375,-0.29548749327659607,-2.05287504196167,-3.2803375720977783
1725956244617224700,4.811224609375,-0.0681999996304512,-1.9465874433517456,-4.321212291717529
1725956244635959000,4.829958984375,0.10037499666213989,-1.7657749652862549,-5.084750175476074
1725956244654694000,4.84869384765625,0.17008750140666962,-1.5703874826431274,-5.621137619018555
1725956244673428200,4.86742822265625,0.20184999704360962,-0.9057124853134155,-5.975337505340576
1725956244692163000,4.8861630859375,0.11990000307559967,-0.426800012588501,-5.969287395477295
1725956244710897400,4.9048974609375,0.09679999947547913,-0.6443250179290771,-5.795762538909912
1725956244729632300,4.92363232421875,0.4094749987125397,-0.8898999691009521,-5.39632511138916
1725956244748366800,4.942366943359375,0.8468624949455261,-1.1573375463485718,-4.803837299346924
1725956244767101400,4.961101318359375,1.143725037574768,-0.8886625170707703,-4.414024829864502
1725956244785836000,4.9798359375,1.3220624923706055,-0.6026625037193298,-3.987637519836426
1725956244804570600,4.998570556640625,1.5860625505447388,-0.2667500078678131,-3.3218624591827393
1725956244823305200,5.01730517578125,1.7656375169754028,0.21697500348091125,-2.625425100326538
1725956244842040000,5.0360400390625,1.7056875228881836,0.15592500567436218,-2.103749990463257
1725956244860774400,5.0547744140625,1.5908750295639038,-0.17874999344348907,-1.5625499486923218
1725956244879509200,5.07350927734375,1.584825038909912,-0.10298749804496765,-1.1338249444961548
1725956244898244000,5.092244140625,1.7166874408721924,0.08387500047683716,-0.6572499871253967
1725956244916978400,5.110978515625,1.7899750471115112,0.40521249175071716,0.004812499973922968
1725956244935713300,5.12971337890625,1.6726875305175781,0.802174985408783,0.7915874719619751
1725956244954448000,5.14844775390625,1.538349986076355,1.0111750364303589,1.6200250387191772
1725956244973182500,5.167182373046875,1.2707749605178833,1.133275032043457,2.3652749061584473
1725956244991917000,5.1859169921875,0.9776250123977661,1.1517000198364258,2.995574951171875
1725956245010651600,5.204651611328125,0.8725749850273132,0.9426999688148499,3.8202998638153076
1725956245029386200,5.22338623046875,0.8321499824523926,0.6458374857902527,4.861175060272217
1725956245048120800,5.242120849609375,0.6733375191688538,0.5933125019073486,5.558712482452393
1725956245066855400,5.26085546875,0.3301374912261963,0.8511250019073486,5.709000110626221
1725956245085590300,5.27959033203125,0.02708750031888485,1.4265625476837158,5.592949867248535
1725956245104324600,5.29832470703125,-0.022962499409914017,1.5133249759674072,5.578374862670898
1725956245123059500,5.3170595703125,0.07837499678134918,1.0184625387191772,5.709000110626221
1725956245141794300,5.335794189453125,-0.03148749843239784,0.653124988079071,5.855575084686279
1725956245160528600,5.354528564453125,-0.42006251215934753,0.592074990272522,5.8947625160217285
1725956245179263200,5.37326318359375,-0.6681125164031982,0.4345000088214874,5.473187446594238
1725956245197998000,5.391998046875,-0.7767375111579895,0.09968750178813934,5.109224796295166
1725956245216732400,5.410732421875,-0.9062625169754028,-0.4230875074863434,4.673075199127197
1725956245235467300,5.42946728515625,-1.120074987411499,-0.7211874723434448,4.102449893951416
1725956245254201900,5.448201904296875,-1.2263624668121338,-1.0828125476837158,3.3804373741149902
1725956245272936700,5.466936767578125,-1.0700249671936035,-1.8280625343322754,2.5924248695373535
1725956245291671300,5.48567138671875,-0.7316374778747559,-2.6552624702453613,1.7714124917984009
1725956245310406000,5.504406005859375,-0.5691124796867371,-3.1915125846862793,0.7697250247001648
1725956245329140500,5.523140380859375,-0.6131125092506409,-3.5238499641418457,-0.3665750026702881
1725956245347875000,5.541875,-0.743737518787384,-3.4688498973846436,-1.613837480545044
1725956245366609700,5.560609619140625,-0.7046874761581421,-2.981412410736084,-2.853950023651123
1725956245385344300,5.57934423828125,-0.582587480545044,-2.5062124729156494,-3.985300064086914
1725956245404078800,5.598078857421875,-0.6021124720573425,-2.473212480545044,-4.873412609100342
1725956245422813700,5.616813720703125,-0.45553749799728394,-2.5097875595092773,-5.166562557220459
1725956245441548300,5.63554833984375,-0.195250004529953,-2.66626238822937,-4.807412624359131
1725956245460283000,5.654282958984375,0.08084999769926071,-2.557499885559082,-4.420212268829346
1725956245479017500,5.673017578125,0.3422375023365021,-2.1298749446868896,-4.27239990234375
1725956245497752000,5.691751953125,0.6525750160217285,-1.3833874464035034,-4.208737373352051
1725956245516486700,5.710486572265625,1.2122000455856323,-0.8824750185012817,-4.3884501457214355
1725956245535221200,5.72922119140625,1.7766374349594116,-0.49527499079704285,-4.652312278747559
1725956245553956000,5.7479560546875,2.1675500869750977,-0.10546249896287918,-4.643787384033203
1725956245572690400,5.7666904296875,2.253074884414673,0.11935000121593475,-4.258924961090088
1725956245591425300,5.78542529296875,2.211549997329712,0.04606249928474426,-3.839824914932251
1725956245610159600,5.80415966796875,2.162600040435791,-0.32903748750686646,-3.593012571334839
1725956245628894500,5.82289453125,2.188312530517578,-0.426800012588501,-3.4354374408721924
1725956245647629000,5.841629150390625,2.2983124256134033,-0.4047999978065491,-3.072575092315674
1725956245666363600,5.86036376953125,2.3826000690460205,-0.335224986076355,-2.4507999420166016
1725956245685098200,5.87909814453125,2.272599935531616,-0.2947999835014343,-1.7360750436782837
1725956245703832800,5.897832763671875,2.0600249767303467,-0.35475000739097595,-1.2424499988555908
1725956245722567700,5.916567626953125,1.9464499950408936,-0.2619374990463257,-0.9395374655723572
1725956245741302000,5.935302001953125,1.816925048828125,0.004399999976158142,-0.4081000089645386
1725956245760036900,5.954036865234375,1.695924997329712,0.259737491607666,0.41538751125335693
1725956245778771500,5.972771484375,1.5248750448226929,0.36726251244544983,1.215637445449829
1725956245797506000,5.991506103515625,1.3648250102996826,0.5187875032424927,1.9131749868392944
1725956245816240600,6.01024072265625,1.2512500286102295,0.5933125019073486,2.5361874103546143
1725956245834975500,6.0289755859375,1.1034375429153442,0.5163124799728394,3.22409987449646
1725956245853710000,6.0477099609375,0.9323874711990356,0.39902499318122864,3.936349868774414
1725956245872444700,6.066444580078125,0.6318125128746033,0.6848874688148499,4.370025157928467
1725956245891179300,6.08517919921875,0.3484250009059906,1.050225019454956,4.35545015335083
1725956245909913900,6.103913818359375,0.08813749998807907,1.2152249813079834,4.3810248374938965
1725956245928648700,6.122648681640625,-0.2685374915599823,1.3055624961853027,4.665649890899658
1725956245947383300,6.14138330078125,-0.6448749899864197,1.562137484550476,5.123799800872803
1725956245966118000,6.160117919921875,-0.8464499711990356,1.6464250087738037,5.330325126647949
1725956245984852500,6.1788525390625,-0.892787516117096,1.3520375490188599,5.276562690734863
1725956246003587000,6.197587158203125,-0.8696874976158142,0.9451749920845032,5.074987411499023
1725956246022322000,6.216322021484375,-0.92826247215271,0.2891624867916107,4.743887424468994
1725956246041056500,6.235056396484375,-1.0187374353408813,-0.4207499921321869,4.54355001449585
1725956246059791000,6.253791015625,-1.1603624820709229,-0.8311874866485596,3.9203999042510986
1725956246078525700,6.272525634765625,-1.5281749963760376,-1.0082875490188599,2.7476625442504883
1725956246097260300,6.29126025390625,-1.7432249784469604,-1.2233375310897827,1.5992624759674072
1725956246115995100,6.3099951171875,-1.6722749471664429,-1.6644375324249268,0.8233500123023987
1725956246134729500,6.3287294921875,-1.4084124565124512,-2.287450075149536,0.33467498421669006
1725956246153464300,6.34746435546875,-1.2190749645233154,-2.897125005722046,-0.3493874967098236
1725956246172199000,6.366198974609375,-1.0394999980926514,-2.901937484741211,-1.1826374530792236
1725956246190933500,6.38493359375,-0.6912124752998352,-2.790837526321411,-1.771549940109253
1725956246209668000,6.403668212890625,-0.3125374913215637,-2.5367374420166016,-2.2479875087738037
1725956246228402700,6.422402587890625,-0.17448750138282776,-2.204400062561035,-2.734187602996826
1725956246247137300,6.44113720703125,-0.06696250289678574,-1.7632999420166016,-3.152050018310547
1725956246265872000,6.459871826171875,0.22618749737739563,-1.1805750131607056,-3.3536250591278076
1725956246284606500,6.4786064453125,0.5402374863624573,-0.7726125121116638,-3.486725091934204
1725956246303341300,6.49734130859375,0.6122875213623047,-0.6833750009536743,-3.6224374771118164
1725956246322076000,6.516075927734375,0.558525025844574,-0.9094250202178955,-3.8471124172210693
1725956246340810500,6.534810546875,0.5707625150680542,-1.0205249786376953,-4.124450206756592
1725956246359545000,6.553545166015625,0.7418124675750732,-0.7896624803543091,-4.075637340545654
1725956246378279700,6.57227978515625,0.9543874859809875,-0.426800012588501,-3.8667750358581543
1725956246397014500,6.5910146484375,1.2414875030517578,-0.27403751015663147,-3.7372500896453857
1725956246415749000,6.6097490234375,1.3600125312805176,-0.40727499127388,-3.5552000999450684
1725956246434483700,6.628483642578125,1.4247750043869019,-0.8129000067710876,-3.2558624744415283
1725956246453218300,6.64721826171875,1.4711124897003174,-0.9204249978065491,-2.9882874488830566
1725956246471953000,6.665952880859375,1.3172500133514404,-0.8043749928474426,-2.911287546157837
1725956246490687700,6.684687744140625,1.4210624694824219,-0.6821374893188477,-2.815999984741211
1725956246509422000,6.703422119140625,1.6984000205993652,-0.6198499798774719,-2.3420374393463135
1725956246528157000,6.722156982421875,1.8535000085830688,-0.6136624813079834,-1.7653625011444092
1725956246546891500,6.7408916015625,1.8572125434875488,-0.8311874866485596,-1.2094500064849854
1725956246565626000,6.759626220703125,1.7631624937057495,-0.9216625094413757,-0.6254875063896179
1725956246584361000,6.77836083984375,1.6506874561309814,-0.7981874942779541,-0.16499999165534973
1725956246603095600,6.797095458984375,1.5798749923706055,-0.5611374974250793,0.08552499860525131
1725956246621830100,6.815830078125,1.397825002670288,-0.1592250019311905,0.22357499599456787
1725956246640564700,6.834564697265625,1.1131999492645264,-0.11522500216960907,0.3726249933242798
1725956246659299600,6.853299560546875,0.9140999913215637,-0.13241249322891235,0.5974375009536743
1725956246678034200,6.8720341796875,0.7625749707221985,0.12292499840259552,0.9333499670028687
1725956246696768800,6.890768798828125,0.593999981880188,0.4259749948978424,1.1838749647140503
1725956246715503400,6.90950341796875,0.408237487077713,0.8986999988555908,1.3402124643325806
1725956246734238000,6.928238037109375,0.20913749933242798,1.0356500148773193,1.6871249675750732
1725956246752972800,6.946972900390625,-0.1597750037908554,0.639787495136261,1.9436999559402466
1725956246771707100,6.96570703125,-0.37853750586509705,0.5457375049591064,2.0597500801086426
1725956246790442000,6.98444189453125,-0.36506250500679016,1.316562533378601,2.118462562561035
1725956246809176600,7.003176513671875,-0.25148749351501465,1.9432874917984009,2.080512523651123
1725956246827911200,7.0219111328125,-0.14643749594688416,2.2316250801086426,2.0439374446868896
1725956246846645800,7.040645751953125,-0.14643749594688416,2.324437379837036,2.0244123935699463
1725956246865380600,7.059380615234375,-0.24406249821186066,1.9322874546051025,1.7873624563217163
1725956246884115200,7.078115234375,-0.2820124924182892,1.1369874477386475,1.468500018119812
1725956246902849800,7.096849853515625,-0.2172500044107437,0.9171249866485596,1.205875039100647
1725956246921584400,7.11558447265625,-0.1671999990940094,0.8205999732017517,1.0543500185012817
1725956246940319000,7.134319091796875,-0.15496249496936798,0.4723125100135803,0.9590625166893005
1725956246959053600,7.153053466796875,-0.14396250247955322,0.4076874852180481,0.7940624952316284
1725956246977788200,7.1717880859375,-0.05719999969005585,0.5115000009536743,0.4984374940395355
1725956246996522800,7.190522705078125,-0.04743750020861626,0.7583125233650208,0.10009999573230743
1725956247015257600,7.209257568359375,-0.10724999755620956,0.9011750221252441,-0.18328750133514404
1725956247033992200,7.2279921875,-0.10724999755620956,0.993987500667572,-0.2895750105381012
1725956247052726800,7.246726806640625,-0.09872499853372574,0.8266500234603882,-0.18933749198913574
1725956247071461600,7.265461669921875,-0.10243749618530273,0.6520249843597412,-0.05376249924302101
1725956247090196000,7.284196044921875,-0.04743750020861626,0.5785999894142151,-0.035475000739097595
1725956247108930800,7.302930908203125,0.011274999938905239,0.6153125166893005,-0.08181250095367432
1725956247127665700,7.321665771484375,0.09790000319480896,0.49431249499320984,-0.03904999792575836
1725956247146400000,7.34039990234375,0.11756250262260437,0.3880249857902527,-0.047712501138448715
1725956247165134800,7.359134765625,0.08937499672174454,0.24873749911785126,-0.1307625025510788
1725956247183869400,7.377869384765625,0.038087498396635056,0.07163749635219574,-0.16005000472068787
1725956247202604000,7.39660400390625,-0.0034374999813735485,-0.133650004863739,-0.06847500056028366
1725956247221338600,7.415338623046875,-0.01691249944269657,-0.1274625062942505,0.023237500339746475
1725956247240073200,7.4340732421875,-0.04619999974966049,-0.2227499932050705,0.08676250278949738
1725956247258808000,7.45280810546875,-0.06324999779462814,-0.29727500677108765,0.0952875018119812
1725956247277542400,7.47154248046875,-0.05719999969005585,-0.2129874974489212,0.025575000792741776
1725956247296277200,7.49027734375,-0.0424874983727932,-0.1116499975323677,0.006049999967217445
1725956247315011800,7.50901171875,-0.018149999901652336,-0.3144625127315521,0.1013374999165535
1725956247333746400,7.527746337890625,0.0038499999791383743,-0.7383750081062317,0.24557499587535858
1725956247352481300,7.546481201171875,0.010037500411272049,-1.1024750471115112,0.3273875117301941
1725956247371216000,7.5652158203125,0.05403750017285347,-1.1683374643325806,0.49720001220703125
1725956247389950500,7.583950439453125,0.15166249871253967,-1.5899125337600708,0.7574874758720398
1725956247408684800,7.602684814453125,0.20184999704360962,-2.2764499187469482,0.8991125226020813
1725956247427419600,7.621419677734375,0.1639000028371811,-2.820125102996826,0.888112485408783
1725956247446154200,7.640154296875,0.20666250586509705,-3.185462474822998,0.8430125117301941
1725956247464888800,7.658888916015625,0.3899500072002411,-3.882999897003174,0.9675874710083008
1725956247483623700,7.677623779296875,0.42899999022483826,-4.2703375816345215,1.1483999490737915
1725956247502358300,7.696358154296875,0.3899500072002411,-4.6124372482299805,1.101925015449524
1725956247521092900,7.7150927734375,0.403425008058548,-5.091350078582764,0.952875018119812
1725956247539827500,7.733827392578125,0.4179999828338623,-5.391787528991699,0.869825005531311
1725956247558562000,7.75256201171875,0.28971248865127563,-5.004587650299072,1.04458749294281
1725956247577296600,7.771296630859375,0.2666124999523163,-4.210387706756592,0.9798250198364258
1725956247596031500,7.790031494140625,0.23594999313354492,-3.729137420654297,0.9333499670028687
1725956247614765800,7.808765869140625,0.20061250030994415,-3.525087594985962,0.7757750153541565
1725956247633500700,7.827500732421875,0.1541374921798706,-2.812837600708008,0.46915000677108765
1725956247652235300,7.8462353515625,0.03203750029206276,-1.5239125490188599,0.06476250290870667
1725956247670969900,7.864969970703125,-0.2820124924182892,0.3562625050544739,-0.3823874890804291
1725956247689704700,7.88370458984375,-0.5874000191688538,2.0362374782562256,-0.781962513923645
1725956247708439300,7.902439208984375,-0.6619250178337097,2.258574962615967,-0.8295375108718872
1725956247727174000,7.921173828125,-0.6069250106811523,3.0575873851776123,-0.8197749853134155
1725956247745908700,7.93990869140625,-0.6484500169754028,4.728762626647949,-0.8417750000953674
1725956247764643000,7.95864306640625,-0.6631624698638916,5.876062393188477,-0.8137249946594238
1725956247783378000,7.9773779296875,-0.6729249954223633,6.016449928283691,-0.9310125112533569
1725956247802112500,7.996112548828125,-0.7572125196456909,5.441012382507324,-1.0861124992370605
1725956247820847000,8.01484716796875,-0.7156875133514404,5.6597747802734375,-1.1753499507904053
1725956247839582000,8.03358203125,-0.6399250030517578,6.457550048828125,-1.3316874504089355
1725956247858316300,8.05231640625,-0.477400004863739,6.631074905395508,-1.185112476348877
1725956247877051100,8.071051025390625,-0.28558748960494995,6.543075084686279,-1.018875002861023
1725956247895785700,8.08978564453125,-0.12443749606609344,6.04821252822876,-0.7049624919891357
1725956247914520300,8.108520263671876,-0.18301250040531158,5.635300159454346,-0.32862499356269836
1725956247933255000,8.1272548828125,-0.2820124924182892,5.074574947357178,-0.10023749619722366
1725956247951989800,8.14598974609375,-0.24901250004768372,4.362325191497803,0.025575000792741776
1725956247970724000,8.16472412109375,-0.18301250040531158,4.223037242889404,0.10257499665021896
1725956247989459000,8.183458984375,-0.0193875003606081,3.293262481689453,0.27857500314712524
1725956248008193500,8.202193603515624,0.23718750476837158,1.7392375469207764,0.5326749682426453
1725956248026928000,8.22092822265625,0.3899500072002411,0.5139750242233276,0.761062502861023
1725956248045662700,8.239662841796875,0.2689499855041504,0.775362491607666,0.2761000096797943
1725956248064397300,8.258397216796874,0.23966249823570251,0.31226250529289246,0.06228749826550484
1725956248083132200,8.277132080078125,0.34966251254081726,-1.5776749849319458,0.17104999721050262
1725956248101866800,8.29586669921875,0.4059000015258789,-4.013762474060059,0.4666749835014343
1725956248120601300,8.314601318359376,0.4094749987125397,-6.508424758911133,0.598675012588501
1725956248139336000,8.3333359375,0.6172375082969666,-8.382550239562988,0.7464874982833862
1725956248158070500,8.352070556640625,0.7185750007629395,-8.633074760437012,1.2266374826431274
1725956248176805400,8.370805419921876,0.6342874765396118,-8.185924530029297,1.710362434387207
1725956248195539700,8.389539794921875,0.7528125047683716,-7.509012222290039,1.8398874998092651
1725956248214274600,8.408274658203124,0.8138625025749207,-6.575662612915039,1.4807374477386475
1725956248233009400,8.427009521484376,0.7980499863624573,-5.731412410736084,0.8563500046730042
1725956248251743700,8.44574365234375,0.807812511920929,-5.709412574768066,0.467912495136261
1725956248270478600,8.464478515625,0.7198125123977661,-6.4168500900268555,0.47891250252723694
1725956248289213000,8.483212890625,0.6184750199317932,-6.779712677001953,0.6792500019073486
1725956248307947800,8.50194775390625,0.7271000146865845,-6.4046125411987305,0.8210124969482422
1725956248326682000,8.52068212890625,0.7552874684333801,-5.703362464904785,0.7732999920845032
1725956248345417000,8.5394169921875,0.6184750199317932,-5.308737277984619,0.6132500171661377
1725956248364151600,8.558151611328125,0.5622375011444092,-4.448675155639648,0.17586250603199005
1725956248382886100,8.57688623046875,0.6147624850273132,-3.2660374641418457,-0.22728750109672546
1725956248401621000,8.59562109375,0.4987125098705292,-2.133587598800659,-0.5081999897956848
1725956248420355300,8.614355224609374,0.27871251106262207,-0.9069499969482422,-0.7184374928474426
1725956248439090200,8.633090087890626,-0.06324999779462814,0.858412504196167,-0.9468249678611755
1725956248457824800,8.65182470703125,-0.4750624895095825,2.838824987411499,-1.1801625490188599
1725956248476559400,8.670559326171874,-0.7242124676704407,4.68723726272583,-1.2656874656677246
1725956248495294200,8.689294189453125,-0.8977375030517578,6.186262607574463,-1.3059749603271484
1725956248514028800,8.70802880859375,-0.9587875008583069,6.9572248458862305,-1.4294500350952148
1725956248532763400,8.726763427734374,-0.9087374806404114,6.672599792480469,-1.381737470626831
1725956248551498000,8.745498046875,-0.7316374778747559,6.182687282562256,-1.144687533378601
1725956248570232600,8.764232666015625,-0.4298250079154968,6.706699848175049,-1.0433499813079834
1725956248588967200,8.78296728515625,-0.381012499332428,7.613237380981445,-1.1655875444412231
1725956248607702000,8.801701904296875,-0.4298250079154968,8.093387603759766,-1.0653499364852905
1725956248626436400,8.820436279296874,-0.26977500319480896,7.321324825286865,-0.9407749772071838
1725956248645171200,8.839171142578126,0.040562499314546585,6.01039981842041,-0.45938751101493835
1725956248663906000,8.857906005859375,0.11384999752044678,5.423962593078613,-0.42391249537467957
1725956248682640400,8.876640380859374,-0.06324999779462814,6.111737251281738,-0.5033875107765198
1725956248701375200,8.895375244140626,-0.14024999737739563,6.710412502288818,-0.5546749830245972
1725956248720109800,8.91410986328125,0.09913749992847443,6.021399974822998,-0.5131499767303467
1725956248738844400,8.932844482421874,0.2653749883174896,4.249849796295166,-0.11852499842643738
1725956248757579000,8.9515791015625,0.3044250011444092,2.431962490081787,0.1722874939441681
1725956248776313900,8.97031396484375,0.26042500138282776,1.0099375247955322,0.0989999994635582
1725956248795048400,8.98904833984375,0.27390000224113464,-0.15193749964237213,-0.16981250047683716
1725956248813783000,9.007782958984375,0.35942500829696655,-1.1475750207901,-0.14300000667572021
1725956248832517600,9.026517578125,0.5572875142097473,-2.7285499572753906,0.25905001163482666
1725956248851252200,9.045252197265626,0.4754749834537506,-4.227574825286865,0.6377249956130981
1725956248869987000,9.063987060546875,0.2849000096321106,-4.939825057983398,0.6364874839782715
1725956248888721700,9.0827216796875,0.3251875042915344,-5.202449798583984,0.6657750010490417
1725956248907456300,9.101456298828126,0.5059999823570251,-6.152987480163574,0.8465874791145325
1725956248926190800,9.12019091796875,0.7345250248908997,-7.1535749435424805,1.2082124948501587
1725956248944925400,9.138925537109374,0.8981499671936035,-7.1242876052856445,1.3572624921798706
1725956248963660000,9.157659912109375,0.9983875155448914,-6.270275115966797,1.1691625118255615
1725956248982395000,9.176394775390625,0.8223875164985657,-5.3527374267578125,0.9858750104904175
1725956249001129200,9.195129150390626,0.7100499868392944,-4.949587345123291,0.6572499871253967
1725956249019864000,9.213864013671875,0.7063375115394592,-4.919062614440918,0.5277249813079834
1725956249038598700,9.2325986328125,0.6807624697685242,-4.97763729095459,0.5900124907493591
1725956249057333000,9.2513330078125,0.7833374738693237,-4.829824924468994,0.6182000041007996
1725956249076067800,9.27006787109375,0.7137625217437744,-4.238574981689453,0.4629625082015991
1725956249094802400,9.288802490234374,0.6355249881744385,-3.3833250999450684,0.1685750037431717
1725956249113537000,9.307537109375,0.4974749982357025,-2.7443625926971436,-0.10381250083446503
1725956249132271900,9.32627197265625,0.2079000025987625,-1.957587480545044,-0.22852499783039093
1725956249151006500,9.34500634765625,-0.147537499666214,-0.3950375020503998,-0.36410000920295715
1725956249169741000,9.363740966796875,-0.40053749084472656,1.5560874938964844,-0.6536750197410583
1725956249188475600,9.3824755859375,-0.5201625227928162,3.6548874378204346,-0.7599624991416931
1725956249207210200,9.401210205078126,-0.6264500021934509,5.35548734664917,-0.9077749848365784
1725956249225944800,9.41994482421875,-0.7242124676704407,5.66225004196167,-0.9675874710083008
1725956249244679400,9.438679443359375,-0.8084999918937683,5.574249744415283,-0.8515374660491943
1725956249263414300,9.457414306640626,-0.9417374730110168,6.8069376945495605,-0.9933000206947327
1725956249282148600,9.476148681640625,-0.9979749917984009,8.09586238861084,-1.2632124423980713
1725956249300883500,9.494883544921874,-0.7584499716758728,8.319437026977539,-1.0628750324249268
1725956249319618000,9.5136181640625,-0.5666375160217285,8.098337173461914,-0.6059625148773193
1725956249338352600,9.5323525390625,-0.6619250178337097,7.767237663269043,-0.29686251282691956
1725956249357087200,9.551087158203124,-1.0272624492645264,7.039037227630615,-0.3665750026702881
1725956249375822000,9.569822021484375,-1.0040249824523926,6.167974948883057,-0.37014999985694885
1725956249394556700,9.588556640625,-0.5983999967575073,4.6347126960754395,-0.025712499395012856
1725956249413291500,9.60729150390625,-0.2330625057220459,2.6152498722076416,0.4324375092983246
1725956249432025900,9.62602587890625,-0.3235374987125397,0.9598875045776367,0.4409624934196472
1725956249450760700,9.6447607421875,-0.24406249821186066,-0.13722500205039978,0.06228749826550484
1725956249469495000,9.6634951171875,0.038087498396635056,-1.5141500234603882,-0.14533749222755432
1725956249488230000,9.68222998046875,0.5132874846458435,-3.804762363433838,0.24681249260902405
1725956249506964500,9.700964599609375,0.8408125042915344,-5.786412239074707,0.8185374736785889
1725956249525699000,9.719698974609376,1.0716749429702759,-6.700237274169922,1.1336874961853027
1725956249544434000,9.738433837890625,1.25496244430542,-7.174337387084961,1.2619750499725342
1725956249563168300,9.757168212890624,1.3965874910354614,-7.450437545776367,1.1789250373840332
1725956249581903000,9.775903076171875,1.5041124820709229,-7.135149955749512,0.8368250131607056
1725956249600637400,9.794637451171875,1.397825002670288,-6.283612251281738,0.4483875036239624
1725956249619372300,9.813372314453124,1.0936750173568726,-5.014349937438965,0.2283875048160553
1725956249638106600,9.832106689453125,0.8823375105857849,-4.972825050354004,0.07452499866485596
1725956249656841500,9.850841552734375,0.7760499715805054,-5.3894500732421875,-0.030524998903274536
1725956249675576000,9.869576171875,0.7882875204086304,-4.699062347412109,0.08676250278949738
1725956249694311000,9.888310791015625,0.6930000185966492,-3.529900074005127,0.11852499842643738
1725956249713045500,9.90704541015625,0.6232874989509583,-2.383975028991699,-0.02694999985396862
1725956249731780000,9.925780029296876,0.4376625120639801,-1.5409624576568604,-0.29809999465942383
1725956249750514700,9.9445146484375,0.15056249499320984,-1.1440000534057617,-0.5619624853134155
1725956249769249300,9.963249267578124,-0.11467500030994415,-0.610087513923645,-0.651199996471405
1725956249787984100,9.981984130859376,-0.3955875039100647,0.6641250252723694,-0.5009124875068665
1725956249806718500,10.000718505859375,-0.6509249806404114,1.8932374715805054,-0.46309998631477356
1725956249825453300,10.019453369140624,-0.7046874761581421,2.385624885559082,-0.43367499113082886
1725956249844188200,10.038188232421875,-0.7327374815940857,3.1308748722076416,-0.40562498569488525
1725956249862922500,10.056922607421875,-0.8256874680519104,4.554137706756592,-0.48262500762939453
1725956249881657300,10.0756572265625,-0.8146874904632568,5.667062282562256,-0.6682500243186951
1725956249900391700,10.0943916015625,-0.6643999814987183,5.89187479019165,-0.5191999673843384
1725956249919126500,10.11312646484375,-0.5398250222206116,5.653587341308594,-0.22728750109672546
1725956249937861000,10.131861083984376,-0.5556374788284302,5.559537410736084,-0.13199999928474426
1725956249956595700,10.150595703125,-0.7975000143051147,5.646299839019775,-0.23457500338554382
1725956249975330300,10.169330322265624,-0.9234499931335449,4.781287670135498,-0.5302000045776367
1725956249994065000,10.18806494140625,-0.7389249801635742,3.0696873664855957,-0.4398624897003174
1725956250012799700,10.2067998046875,-0.5178250074386597,1.1406999826431274,0.08428750187158585
1725956250031534000,10.2255341796875,-0.5311625003814697,-0.5611374974250793,0.5362499952316284
1725956250050269000,10.24426904296875,-0.7059249877929688,-1.0828125476837158,0.861299991607666
1725956250069003800,10.263003662109375,-0.9869750142097473,-0.9057124853134155,0.808775007724762
1725956250087738000,10.281738037109376,-1.2324124574661255,-0.7529500126838684,0.38843750953674316
1725956250106473000,10.300472900390625,-1.3681249618530273,-0.3254624903202057,-0.0147124994546175
1725956250125207300,10.319207275390625,-1.4071749448776245,0.03382499888539314,-0.21752500534057617
1725956250143942100,10.337942138671876,-1.4341249465942383,-0.04922499880194664,-0.24062499403953552
1725956250162676700,10.3566767578125,-1.308174967765808,-0.335224986076355,-0.11852499842643738
1725956250181411300,10.375411376953124,-1.066312551498413,-0.5465624928474426,-0.02928750030696392
1725956250200146200,10.394146240234376,-0.8232125043869019,-0.5636125206947327,-0.04152499884366989
1725956250218880500,10.412880615234375,-0.591112494468689,-0.38032498955726624,-0.11976250261068344
1725956250237615400,10.431615478515624,-0.2905375063419342,-0.4109874963760376,-0.24557499587535858
1725956250256350000,10.450349853515625,0.30195000767707825,-0.5905625224113464,-0.3653374910354614
1725956250275084500,10.46908447265625,1.2464375495910645,-0.6223250031471252,-0.39338749647140503
1725956250293819100,10.487819091796876,2.1650750637054443,-0.38032498955726624,-0.35791251063346863
1725956250312554000,10.506553955078125,2.7539875507354736,0.05211250111460686,-0.41786250472068787
1725956250331288600,10.52528857421875,3.076425075531006,0.2609750032424927,-0.524150013923645
1725956250350023200,10.544023193359376,3.4295248985290527,-0.14698749780654907,-0.6560124754905701
1725956250368757800,10.5627578125,3.719099998474121,-0.5123249888420105,-0.7244874835014343
1725956250387492400,10.581492431640624,3.8950998783111572,-0.5478000044822693,-0.6144874691963196
1725956250406227200,10.600227294921876,3.7350499629974365,-0.36932501196861267,-0.20281249284744263
1725956250424961800,10.6189619140625,3.4637625217437744,-0.5025625228881836,-0.05004999786615372
1725956250443696400,10.6376962890625,3.2451374530792236,-0.7933750152587891,-0.2712875008583069
1725956250462431200,10.65643115234375,3.2084250450134277,-1.0119999647140503,-0.34209999442100525
1725956250481165600,10.67516552734375,3.264662504196167,-0.8397125005722046,-0.17599999904632568
1725956250499900400,10.693900390625,3.2976624965667725,-0.33880001306533813,0.10257499665021896
1725956250518634800,10.712634765625,3.1253750324249268,0.03616249933838844,0.16376249492168427
1725956250537369600,10.73136962890625,2.885849952697754,0.0471624992787838,0.010999999940395355
1725956250556104200,10.750104248046876,2.636699914932251,0.5358374714851379,-0.25052499771118164
1725956250574838800,10.7688388671875,2.2896499633789062,0.9842249751091003,-0.29686251282691956
1725956250593573600,10.78757373046875,1.8352124691009521,0.7643625140190125,-0.04028749838471413
1725956250612308200,10.80630810546875,1.384487509727478,0.37950000166893005,0.24062499403953552
1725956250631042800,10.825042724609375,0.8798624873161316,0.06311249732971191,0.3176249861717224
1725956250649777400,10.84377734375,0.37400001287460327,-0.2410375028848648,0.23457500338554382
1725956250668512000,10.862511962890625,-0.24901250004768372,-0.48179998993873596,0.1868624985218048
1725956250687246600,10.88124658203125,-0.9967374801635742,-0.5733749866485596,0.22962500154972076
1725956250705981200,10.899981201171874,-1.6026999950408936,-0.7383750081062317,0.22110000252723694
1725956250724716000,10.918716064453125,-2.0961875915527344,-0.6748499870300293,0.210099995136261
1725956250743450600,10.93745068359375,-2.4908125400543213,-0.2630375027656555,0.22728750109672546
1725956250762185200,10.956185302734376,-2.758387565612793,-0.30469998717308044,0.15152500569820404
1725956250780919800,10.974919921875,-3.033250093460083,-0.5758500099182129,-0.028049999848008156
1725956250799654400,10.993654296875,-3.4450623989105225,-0.6430875062942505,-0.08676250278949738
1725956250818389000,11.012388916015626,-3.829787492752075,-0.8189499974250793,-0.07576250284910202
1725956250837123600,11.03112353515625,-4.0228376388549805,-1.1695749759674072,-0.12828749418258667
1725956250855858400,11.0498583984375,-3.966599941253662,-1.3345749378204346,-0.18809999525547028
1725956250874593000,11.068593017578126,-3.840787410736084,-1.4311000108718872,-0.26510000228881836
1725956250893327600,11.08732763671875,-3.937312364578247,-1.1842875480651855,-0.42762500047683716
1725956250912062200,11.106062255859374,-4.135312557220459,-0.7859500050544739,-0.734250009059906
1725956250930796800,11.124796875,-4.201175212860107,-0.7713750004768372,-1.0690624713897705
1725956250949531400,11.143531494140625,-4.1683125495910645,-0.767662525177002,-1.1349250078201294
1725956250968266200,11.162266357421874,-4.060787677764893,-0.2947999835014343,-0.7867749929428101
1725956250987000600,11.18100048828125,-3.8579750061035156,0.1106875017285347,-0.26633748412132263
1725956251005735400,11.1997353515625,-3.787024974822998,-0.30346250534057617,-0.05004999786615372
1725956251024470000,11.218469970703126,-3.5756874084472656,-0.6246625185012817,0.01952499896287918
1725956251043204600,11.23720458984375,-3.0919625759124756,-0.40974998474121094,-0.16733749210834503
1725956251061939500,11.255939453125,-2.4639999866485596,0.27073749899864197,-0.48510000109672546
1725956251080674000,11.274674072265626,-1.693037509918213,0.792412519454956,-0.5631999969482422
1725956251099408600,11.29340869140625,-0.8109750151634216,0.7545999884605408,-0.42762500047683716
1725956251118143500,11.3121435546875,0.1541374921798706,0.600600004196167,-0.12099999934434891
1725956251136878000,11.330878173828125,1.01791250705719,0.5310249924659729,0.10628750175237656
1725956251155612700,11.34961279296875,1.6275874376296997,0.24021250009536743,0.1588124930858612
1725956251174347300,11.36834716796875,2.1735999584198,-0.0919874981045723,0.059812501072883606
1725956251193081900,11.387081787109375,2.719749927520752,-0.23003749549388885,0.04881250113248825
1725956251211816400,11.40581640625,3.3526625633239746,0.14135000109672546,0.18809999525547028
1725956251230551300,11.42455126953125,3.854675054550171,0.5407875180244446,0.16981250047683716
1725956251249285600,11.44328564453125,3.88643741607666,0.5370749831199646,0.0989999994635582
1725956251268020200,11.462020263671874,3.813149929046631,0.24639999866485596,0.12099999934434891
1725956251286755000,11.480755126953126,3.880387544631958,0.30250000953674316,0.17833749949932098
1725956251305489700,11.49948974609375,3.9414374828338623,0.5322625041007996,0.28091248869895935
1725956251324224300,11.518224365234374,3.8216750621795654,0.2732124924659729,0.42143750190734863
1725956251342959000,11.536958984375,3.5602874755859375,-0.6491374969482422,0.3531000018119812
1725956251361693700,11.555693603515625,3.3099000453948975,-1.3100999593734741,0.059812501072883606
1725956251380428000,11.574427978515626,3.1766624450683594,-1.433437466621399,-0.29205000400543213
1725956251399163000,11.593162841796875,3.2059500217437744,-1.3076249361038208,-0.45567500591278076
1725956251417897500,11.6118974609375,3.317187547683716,-0.28503748774528503,-0.15399999916553497
1725956251436632000,11.630632080078126,3.310999870300293,0.980650007724762,0.19910000264644623
1725956251455366700,11.64936669921875,3.19742488861084,1.6341874599456787,0.3371500074863434
1725956251474101200,11.668101318359374,2.815037488937378,1.4851374626159668,0.23938749730587006
1725956251492836000,11.686836181640626,2.4399375915527344,1.103987455368042,0.25657498836517334
1725956251511570700,11.70557080078125,2.157787561416626,0.6886000037193298,0.4483875036239624
1725956251530305300,11.72430517578125,1.634874939918518,0.22316250205039978,0.5449125170707703
1725956251549039900,11.743039794921875,1.02162504196167,-0.03341250121593475,0.5057250261306763
1725956251567774500,11.7617744140625,0.30195000767707825,-0.11769999563694,0.5754374861717224
1725956251586509300,11.78050927734375,-0.4151124954223633,-0.3278000056743622,0.5021499991416931
1725956251605244000,11.799243896484375,-1.057787537574768,-0.41827499866485596,0.3971000015735626
1725956251623978500,11.817978515625,-1.6894625425338745,-0.509850025177002,0.2638624906539917
1725956251642713300,11.83671337890625,-2.2769999504089355,-0.8262374997138977,0.05252499878406525
1725956251661447700,11.85544775390625,-2.6973373889923096,-0.9117624759674072,-0.16376249492168427
1725956251680182500,11.8741826171875,-3.0369625091552734,-0.7908999919891357,-0.39338749647140503
1725956251698916900,11.892916748046876,-3.29229998588562,-0.5465624928474426,-0.6022499799728394
1725956251717651700,11.911651611328125,-3.471874952316284,-0.23993749916553497,-0.6254875063896179
1725956251736386300,11.93038623046875,-3.5831124782562256,-0.23017500340938568,-0.6352499723434448
1725956251755121000,11.949120849609375,-3.66121244430542,-0.335224986076355,-0.7097749710083008
1725956251773855700,11.967855712890625,-3.68568754196167,-0.6125624775886536,-0.8845375180244446
1725956251792590000,11.986590087890624,-3.6697375774383545,-0.8971874713897705,-1.0518749952316284
1725956251811325000,12.005324951171875,-3.5928750038146973,-0.7688999772071838,-0.9981124997138977
1725956251830059300,12.024059326171875,-3.699162483215332,-0.3497999906539917,-0.8332499861717224
1725956251848794000,12.042794189453126,-4.08278751373291,-0.4207499921321869,-0.8405374884605408
1725956251867528700,12.06152880859375,-4.370987415313721,-0.8397125005722046,-1.0714000463485718
1725956251886263300,12.08026318359375,-4.109600067138672,-0.8861874938011169,-1.3964500427246094
1725956251904998100,12.098998046875,-3.6771624088287354,-0.3022249937057495,-1.373212456703186
1725956251923732700,12.117732666015625,-3.4315874576568604,0.2915000021457672,-0.805062472820282
1725956251942467300,12.13646728515625,-3.019774913787842,-0.18617500364780426,-0.5436750054359436
1725956251961202200,12.1552021484375,-2.3417625427246094,-0.11769999563694,-0.5461499691009521
1725956251979936500,12.1739365234375,-1.5904624462127686,0.766837477684021,-0.4081000089645386
1725956251998671400,12.19267138671875,-1.0162625312805176,1.0257500410079956,-0.042762499302625656
1725956252017406000,12.211406005859375,-0.5361124873161316,0.6641250252723694,0.2223374992609024
1725956252036140500,12.230140625,0.10532499849796295,0.2915000021457672,0.08304999768733978
1725956252054875400,12.24887548828125,0.865149974822998,0.3221625089645386,-0.16981250047683716
1725956252073610000,12.26760986328125,1.7154500484466553,0.21821250021457672,-0.20281249284744263
1725956252092344600,12.286344482421875,2.3948373794555664,0.3221625089645386,-0.07947500050067902
1725956252111079200,12.3050791015625,2.8627500534057617,0.5237374901771545,0.03423750028014183
1725956252129813800,12.323813720703125,2.9335625171661377,0.1083500012755394,0.06476250290870667
1725956252148548400,12.34254833984375,2.9030375480651855,-0.6088500022888184,0.0147124994546175
1725956252167283200,12.361283203125,3.043562412261963,-0.5428500175476074,0.16362500190734863
1725956252186017800,12.380017822265625,3.2731873989105225,-0.1311749964952469,0.47891250252723694
1725956252204752400,12.39875244140625,3.3819499015808105,-0.015124999918043613,0.8258249759674072
1725956252223487000,12.417487060546875,3.4247124195098877,-0.2532750070095062,1.0971125364303589
1725956252242221800,12.436221923828125,3.445474863052368,-0.5368000268936157,1.3132624626159668
1725956252260956400,12.454956298828124,3.4832875728607178,-0.3975124955177307,1.3096874952316284
1725956252279691000,12.47369091796875,3.5162875652313232,0.07163749635219574,1.106874942779541
1725956252298425600,12.492425537109375,3.5004749298095703,0.0032999999821186066,0.8515374660491943
1725956252317160200,12.51116015625,3.377000093460083,-0.26551249623298645,0.7697250247001648
1725956252335894800,12.529894775390625,3.2206625938415527,-0.2167000025510788,0.7244874835014343
1725956252354629600,12.548629638671875,3.138849973678589,0.12058749794960022,0.6524375081062317
1725956252373364200,12.5673642578125,3.0936124324798584,0.6617875099182129,0.5864375233650208
1725956252392098800,12.586098876953125,2.991037368774414,0.8278874754905701,0.6707249879837036
1725956252410833400,12.60483349609375,2.6977500915527344,0.6727874875068665,0.686537504196167
1725956252429568000,12.623568115234375,2.2065999507904053,0.4809750020503998,0.47519999742507935
1725956252448302800,12.642302734375,1.7997374534606934,0.36602500081062317,0.28091248869895935
1725956252467037200,12.661037109375,1.4491125345230103,0.30250000953674316,0.2578125
1725956252485772000,12.67977197265625,0.9421499967575073,0.24392500519752502,0.35791251063346863
1725956252504506600,12.698506591796875,0.23966249823570251,0.22068749368190765,0.28462499380111694
1725956252523241500,12.717241455078126,-0.508062481880188,0.0008249999955296516,0.09033749997615814
1725956252541976000,12.73597607421875,-1.1470249891281128,-0.335224986076355,-0.057475000619888306
1725956252560710400,12.75471044921875,-1.6625125408172607,-0.6528499722480774,-0.11852499842643738
1725956252579445200,12.7734453125,-2.0498499870300293,-0.803137481212616,-0.2516250014305115
1725956252598179800,12.792179931640625,-2.2892374992370605,-0.8372374773025513,-0.42391249537467957
1725956252616914400,12.81091455078125,-2.5067625045776367,-0.8751875162124634,-0.5656750202178955
1725956252635649300,12.829649169921876,-2.8219125270843506,-1.0852874517440796,-0.7379624843597412
1725956252654383900,12.8483837890625,-3.0089125633239746,-1.222100019454956,-0.9223499894142151
1725956252673118500,12.867118408203124,-3.087012529373169,-1.1512874364852905,-1.0470625162124634
1725956252691853300,12.885853271484375,-3.0809624195098877,-0.9497125148773193,-1.0518749952316284
1725956252710587600,12.904587646484375,-3.0540125370025635,-0.6674249768257141,-1.0213500261306763
1725956252729322500,12.923322509765624,-3.1457250118255615,-0.5893250107765198,-1.0714000463485718
1725956252748057300,12.942057373046875,-3.211587429046631,-0.5598999857902527,-1.1178749799728394
1725956252766791700,12.960791748046875,-3.117537498474121,-0.5050374865531921,-0.9578250050544739
1725956252785526500,12.979526611328126,-2.8769125938415527,-0.3535124957561493,-0.7317749857902527
1725956252804261400,12.998261474609375,-2.515287399291992,0.09487500041723251,-0.6670125126838684
1725956252822995700,13.01699560546875,-2.382050037384033,0.5627874732017517,-0.6927250027656555
1725956252841730600,13.03573046875,-2.604525089263916,0.5615500211715698,-0.6670125126838684
1725956252860465000,13.05446484375,-2.9294373989105225,0.6848874688148499,-0.5913875102996826
1725956252879199700,13.07319970703125,-3.1102499961853027,1.3593250513076782,-0.5191999673843384
1725956252897934300,13.091934326171875,-3.3362998962402344,1.5206124782562256,-0.4801499843597412
1725956252916669000,13.1106689453125,-3.4779250621795654,0.6115999817848206,-0.5046250224113464
1725956252935403800,13.12940380859375,-3.3668248653411865,-0.16417500376701355,-0.4899125099182129
1725956252954138000,13.14813818359375,-2.8071999549865723,-0.12498749792575836,-0.4081000089645386
1725956252972873000,13.166873046875,-2.0729498863220215,0.5335000157356262,-0.4324375092983246
1725956252991607600,13.185607666015626,-1.45722496509552,1.015987515449524,-0.3591499924659729
1725956253010342100,13.204342041015625,-0.7486875057220459,1.0917500257492065,-0.29686251282691956
1725956253029077000,13.223076904296875,-0.20377500355243683,0.8010749816894531,-0.24433749914169312
1725956253047811600,13.2418115234375,0.2531374990940094,0.5493124723434448,-0.1588124930858612
1725956253066546200,13.260546142578125,0.6599999666213989,0.43821248412132263,0.0037124999798834324
1725956253085281000,13.279281005859374,0.9776250123977661,0.23045000433921814,0.1905750036239624
1725956253104015400,13.298015380859376,1.3514875173568726,0.2671625018119812,0.32862499356269836
1725956253122750200,13.316750244140625,1.5908750295639038,0.03739999979734421,0.4263874888420105
1725956253141485000,13.335485107421874,1.5248750448226929,-0.37798750400543213,0.4923875033855438
1725956253160219400,13.354219482421875,1.2732499837875366,-0.7811374664306641,0.5997750163078308
1725956253178954200,13.372954345703125,1.3624874353408813,-0.8458999991416931,0.7037249803543091
1725956253197688800,13.391688720703126,1.6984000205993652,-0.16417500376701355,0.888112485408783
1725956253216423400,13.41042333984375,1.7448749542236328,0.12416250258684158,1.0786875486373901
1725956253235158300,13.429158203125,1.564062476158142,-0.22769999504089355,1.0861124992370605
1725956253253892600,13.447892578125,1.5188249349594116,-0.5478000044822693,0.9248250126838684
1725956253272627200,13.466627197265625,1.687399983406067,-0.40232500433921814,0.8197749853134155
1725956253291362000,13.485362060546874,1.80097496509552,-0.0859375,0.7525374889373779
1725956253310096600,13.5040966796875,1.721637487411499,-0.057887498289346695,0.6437749862670898
1725956253328831200,13.522831298828125,1.5615874528884888,-0.17641249299049377,0.4996750056743622
1725956253347565800,13.54156591796875,1.5542999505996704,-0.11769999563694,0.36643749475479126
1725956253366300700,13.56030078125,1.629925012588501,-0.040699999779462814,0.29438748955726624
1725956253385035300,13.57903515625,1.6201624870300293,-0.113987497985363,0.2480500042438507
1725956253403769900,13.597769775390624,1.5750625133514404,-0.08470000326633453,0.22481249272823334
1725956253422504700,13.616504638671875,1.5273499488830566,0.13158750534057617,0.26881250739097595
1725956253441239000,13.635239013671875,1.446774959564209,0.24763749539852142,0.2540999948978424
1725956253459974000,13.653973876953126,1.2817749977111816,0.002062499988824129,0.16376249492168427
1725956253478708700,13.672708740234375,1.131487488746643,-0.15441249310970306,0.01347499992698431
1725956253497443300,13.691443359375,1.01791250705719,-0.015124999918043613,-0.09652499854564667
1725956253516178000,13.710177978515626,0.8933374881744385,0.27816250920295715,-0.17104999721050262
1725956253534912800,13.728912841796875,0.7650499939918518,0.46254998445510864,-0.17833749949932098
1725956253553647000,13.747647216796874,0.5890499949455261,0.3111625015735626,-0.11123749613761902
1725956253572381700,13.766381591796875,0.38142499327659607,0.24268749356269836,-0.07452499866485596
1725956253591116300,13.7851162109375,0.20666250586509705,0.390500009059906,-0.059812501072883606
1725956253609851100,13.80385107421875,0.08208750188350677,0.34773749113082886,-0.028049999848008156
1725956253628585700,13.822585693359375,0.002612499985843897,0.19139999151229858,-0.023237500339746475
1725956253647320300,13.8413203125,0.011274999938905239,0.15716250240802765,-0.00494999997317791
1725956253666055000,13.860054931640626,0.04908749833703041,0.16568750143051147,0.010999999940395355
1725956253684789800,13.878789794921875,0.08689999580383301,0.15963749587535858,-0.06104999780654907
1725956253703524400,13.8975244140625,0.06861250102519989,0.18768750131130219,-0.12347500026226044
1725956253722259000,13.916259033203126,0.03437500074505806,0.10216250270605087,-0.16733749210834503
1725956253740993500,13.93499365234375,0.01979999989271164,0.03863750025629997,-0.18328750133514404
1725956253759728400,13.953728271484374,0.035612501204013824,0.004399999976158142,-0.17599999904632568
1725956253778463000,13.972462890625,0.025849999859929085,-0.0016499999910593033,-0.21752500534057617
1725956253797197800,13.99119775390625,-0.014437500387430191,0.008112499490380287,-0.2578125
1725956253815932400,14.009932373046874,-0.05348749831318855,0.0032999999821186066,-0.2615250051021576
1725956253834667000,14.0286669921875,-0.07067500054836273,-0.008937500417232513,-0.2540999948978424
1725956253853401600,14.047401611328125,-0.0719124972820282,0.006874999962747097,-0.2358125001192093
1725956253872136200,14.06613623046875,-0.06324999779462814,0.05335000157356262,-0.19910000264644623
1725956253890871000,14.08487109375,-0.03891250118613243,0.05211250111460686,-0.1685750037431717
1725956253909605600,14.103605712890625,-0.014437500387430191,0.013062499463558197,-0.13323749601840973
1725956253928340200,14.12234033203125,0.002612499985843897,0.03863750025629997,-0.08923749625682831
1725956253947074800,14.14107470703125,0.02708750031888485,0.06558749824762344,-0.02694999985396862
1725956253965809400,14.159809326171874,0.06379999965429306,0.04839999973773956,0.05004999786615372
1725956253984544300,14.178544189453126,0.08937499672174454,0.03616249933838844,0.09776250272989273
1725956254003279000,14.197279052734375,0.08937499672174454,0.05335000157356262,0.09157499670982361
1725956254022013400,14.216013427734374,0.06503749638795853,0.05087500065565109,0.07576250284910202
1725956254040748300,14.234748291015626,0.06613750010728836,0.06187500059604645,0.08057499676942825
1725956254059483000,14.25348291015625,0.08813749998807907,0.06311249732971191,0.08181250095367432
1725956254078217500,14.272217529296874,0.11384999752044678,0.0471624992787838,0.07576250284910202
1725956254096952300,14.290952392578125,0.11879999935626984,0.07163749635219574,0.05128749832510948
1725956254115687000,14.30968701171875,0.12361250072717667,0.09116250276565552,-0.01718750037252903
1725956254134421500,14.32842138671875,0.1163249984383583,0.09968750178813934,-0.08799999952316284
1725956254153156000,14.347156005859375,0.10889999568462372,0.0668250024318695,-0.14533749222755432
1725956254171890700,14.365890625,0.11013749986886978,0.0448249988257885,-0.17352500557899475
1725956254190625500,14.38462548828125,0.10656250268220901,0.0471624992787838,-0.18205000460147858
1725956254209360100,14.403360107421875,0.07713750004768372,0.06435000151395798,-0.2040500044822693
1725956254228094700,14.4220947265625,0.045375000685453415,0.08387500047683716,-0.21876250207424164
1725956254246829300,14.440829345703126,0.03203750029206276,0.07411249727010727,-0.24433749914169312
1725956254265564200,14.459564208984375,0.055137500166893005,0.05211250111460686,-0.23457500338554382
1725956254284298800,14.478298828125,0.07603749632835388,0.05706249922513962,-0.1588124930858612
1725956254303033600,14.49703369140625,0.11013749986886978,0.07039999961853027,-0.09047500044107437
1725956254321768200,14.515768310546875,0.12732499837875366,0.06187500059604645,-0.028049999848008156
1725956254340502800,14.534502685546874,0.13956250250339508,0.0411125011742115,0.06104999780654907
1725956254359237600,14.553237548828125,0.18713749945163727,0.019112499430775642,0.21986250579357147
1725956254377972000,14.571971923828125,0.2714250087738037,0.05211250111460686,0.4166249930858612
1725956254396706800,14.590706787109376,0.32766249775886536,0.1083500012755394,0.6462500095367432
1725956254415441400,14.60944140625,0.36547499895095825,0.13887499272823334,0.9602999687194824
1725956254434176000,14.628176025390625,0.41923749446868896,0.13516250252723694,1.3877874612808228
1725956254452910800,14.646910888671876,0.4877125024795532,0.0826374962925911,1.822837471961975
1725956254471645200,14.665645263671875,0.5145249962806702,0.07163749635219574,2.2100374698638916
1725956254490380000,14.684380126953124,0.4571875035762787,0.21463750302791595,2.539900064468384
1725956254509114600,14.703114501953126,0.3251875042915344,0.3844499886035919,2.797712564468384
1725956254527849200,14.72184912109375,0.21518750488758087,0.5065500140190125,3.038337469100952
1725956254546584000,14.740583984375,0.12361250072717667,0.27073749899864197,3.2448625564575195
1725956254565318400,14.759318359375,0.04661250114440918,-0.0859375,3.335200071334839
1725956254584053200,14.77805322265625,-0.05224999785423279,-0.2484624981880188,3.3658623695373535
1725956254602788000,14.7967880859375,-0.3100624978542328,-0.11893749982118607,3.2803375720977783
1725956254621522700,14.815522705078125,-0.591112494468689,0.08882500231266022,3.0127625465393066
1725956254640257300,14.83425732421875,-0.8940249681472778,0.171875,2.691425085067749
1725956254658991900,14.852991943359376,-1.260599970817566,0.05582499876618385,2.273562431335449
1725956254677726500,14.8717265625,-1.6112250089645386,-0.26551249623298645,1.6908375024795532
1725956254696461300,14.89046142578125,-1.867799997329712,-0.7101874947547913,1.206974983215332
1725956254715196000,14.90919580078125,-2.185425043106079,-1.3381500244140625,0.5704874992370605
1725956254733930500,14.927930419921875,-2.470050096511841,-1.7620625495910645,-0.36038750410079956
1725956254752665300,14.946665283203124,-2.675337553024292,-2.44254994392395,-1.123924970626831
1725956254771400000,14.96539990234375,-2.867150068283081,-3.0852248668670654,-1.6615500450134277
1725956254790134500,14.984134521484375,-2.733912467956543,-2.789599895477295,-2.2699875831604004
1725956254808869400,15.002869384765624,-2.2037124633789062,-1.9100124835968018,-2.85518741607666
1725956254827603700,15.021603759765625,-1.4559874534606934,-1.055999994277954,-3.1850500106811523
1725956254846338600,15.040338623046875,-0.7327374815940857,-0.7823749780654907,-3.307149887084961
1725956254865073200,15.0590732421875,-0.10848750174045563,-1.1658624410629272,-3.2155749797821045
1725956254883808000,15.07780810546875,0.3361875116825104,-1.5409624576568604,-3.2203874588012695
1725956254902542600,15.09654248046875,0.5927624702453613,-1.4188624620437622,-3.375624895095825
1725956254921277200,15.115277099609376,0.768625020980835,-1.0718125104904175,-3.40120005607605
1725956254940011800,15.13401171875,0.8408125042915344,-0.8592374920845032,-3.468437433242798
1725956254958746400,15.152746337890624,0.9201499819755554,-0.8177124857902527,-3.6272499561309814
1725956254977481200,15.171481201171876,1.0081499814987183,-0.7493749856948853,-3.745774984359741
1725956254996215800,15.1902158203125,1.0851500034332275,-0.820187509059906,-3.8422999382019043
1725956255014950400,15.208950439453124,1.1241999864578247,-0.9411875009536743,-3.9143500328063965
1725956255033685200,15.227685302734375,1.2255375385284424,-0.8874250054359436,-3.770250082015991
1725956255052419800,15.246419921875,1.3135374784469604,-0.7896624803543091,-3.288862466812134
1725956255071154400,15.265154541015624,1.4663000106811523,-0.7101874947547913,-2.8074750900268555
1725956255089889300,15.28388916015625,1.6763999462127686,-0.5685625076293945,-2.447087526321411
1725956255108624000,15.302623779296875,2.0112125873565674,-0.3242250084877014,-1.9962249994277954
1725956255127358500,15.3213583984375,2.3838374614715576,0.024062499403953552,-1.3451625108718872
1725956255146093300,15.34009326171875,2.653749942779541,0.1326874941587448,-0.681725025177002
1725956255164828000,15.358827880859375,2.827275037765503,-0.05912499874830246,-0.20157499611377716
1725956255183562500,15.3775625,2.9555625915527344,-0.24722500145435333,0.3396250009536743
1725956255202297000,15.396297119140625,3.0826125144958496,-0.42803749442100525,1.0873500108718872
1725956255221031700,15.41503173828125,3.1706125736236572,-0.4963749945163727,1.9608874320983887
1725956255239766500,15.4337666015625,3.1534249782562256,-0.30098751187324524,2.811187505722046
1725956255258501000,15.452501220703125,2.8650875091552734,-0.12993749976158142,3.337675094604492
1725956255277235700,15.471235595703124,2.3691248893737793,-0.01993750035762787,3.539249897003174
1725956255295970600,15.489970458984375,1.874400019645691,-0.15674999356269836,3.716487407684326
1725956255314705200,15.508705078125,1.5138750076293945,-0.3497999906539917,3.811774969100952
1725956255333439700,15.527439697265624,1.2622499465942383,-0.3730374872684479,3.987637519836426
1725956255352174600,15.546174560546875,0.9483374953269958,-0.5478000044822693,4.395737648010254
1725956255370909000,15.564908935546875,0.6599999666213989,-0.5416125059127808,4.740174770355225
1725956255389643800,15.583643798828126,0.31171250343322754,-0.5928999781608582,4.779362678527832
1725956255408378400,15.60237841796875,-0.2147749960422516,-0.8079500198364258,4.665649890899658
1725956255427113000,15.621113037109374,-0.7621625065803528,-0.9827125072479248,4.33097505569458
1725956255445847800,15.639847900390626,-1.3326499462127686,-1.1745250225067139,4.0231122970581055
1725956255464582100,15.65858203125,-1.823799967765808,-1.3308625221252441,3.7250125408172607
1725956255483317000,15.67731689453125,-2.099900007247925,-1.38833749294281,3.301100015640259
1725956255502051600,15.696051513671875,-2.239187479019165,-1.625249981880188,2.7781875133514404
1725956255520786400,15.714786376953125,-2.3992373943328857,-2.1298749446868896,2.212512493133545
1725956255539520800,15.733520751953124,-2.626387596130371,-2.4952125549316406,1.5087875127792358
1725956255558255600,15.752255615234375,-2.836625099182129,-2.4022624492645264,0.5802500247955322
1725956255576990200,15.770990234375,-2.924487590789795,-2.2312123775482178,-0.5937250256538391
1725956255595724800,15.789724853515626,-2.9979124069213867,-2.17511248588562,-1.8313624858856201
1725956255614459400,15.80845947265625,-3.1224875450134277,-2.0431125164031982,-2.835662603378296
1725956255633194200,15.8271943359375,-3.076012372970581,-2.0333499908447266,-3.3426249027252197
1725956255651928800,15.8459287109375,-2.6558125019073486,-2.5062124729156494,-3.403675079345703
1725956255670663400,15.864663330078125,-2.1499500274658203,-2.6015000343322754,-3.29010009765625
1725956255689398300,15.883398193359374,-1.7162749767303467,-1.866012454032898,-3.236337423324585
1725956255708132900,15.9021328125,-1.1995500326156616,-0.8471375107765198,-3.230149984359741
1725956255726867500,15.920867431640625,-0.5849249958992004,0.006874999962747097,-3.2168123722076416
1725956255745602300,15.939602294921874,0.03684999793767929,0.39668750762939453,-3.0078125
1725956255764337000,15.9583369140625,0.5524749755859375,0.5457375049591064,-2.7061374187469482
1725956255783071500,15.977071533203125,0.9018625020980835,0.26840001344680786,-2.7121875286102295
1725956255801806300,15.995806396484374,1.1877249479293823,0.27445000410079956,-2.609612464904785
1725956255820541000,16.014541015625,1.472350001335144,0.3917374908924103,-2.3590874671936035
1725956255839275500,16.033275634765626,1.708162546157837,0.5676000118255615,-2.20770001411438
1725956255858010000,16.052010009765624,1.634874939918518,0.7398874759674072,-2.236987590789795
1725956255876745000,16.070744873046873,1.3600125312805176,0.24763749539852142,-2.32251238822937
1725956255895479600,16.0894794921875,1.1461999416351318,-0.28022500872612,-2.2479875087738037
1725956255914214100,16.108214111328124,1.131487488746643,-0.23017500340938568,-2.1759374141693115
1725956255932949000,16.126948974609373,1.2487750053405762,0.21463750302791595,-1.9694124460220337
1725956255951683300,16.145683349609374,1.3782999515533447,0.4174500107765198,-1.5064499378204346
1725956255970418200,16.164418212890624,1.450350046157837,0.3746874928474426,-1.0836374759674072
1725956255989152800,16.18315283203125,1.4370124340057373,0.2171124964952469,-0.8674874901771545
1725956256007887400,16.201887451171874,1.4333000183105469,0.12292499840259552,-0.6609625220298767
1725956256026622200,16.220622314453124,1.4895374774932861,0.15468749403953552,-0.3726249933242798
1725956256045357000,16.239357177734377,1.5078250169754028,0.11192499846220016,0.018287500366568565
1725956256064091400,16.25809130859375,1.467537522315979,-0.015124999918043613,0.43738749623298645
1725956256082826200,16.276826171875,1.4027750492095947,-0.06146249920129776,0.7550125122070312
1725956256101560800,16.295560791015625,1.289199948310852,0.006874999962747097,0.9431124925613403
1725956256120295400,16.31429541015625,1.0764875411987305,-0.02969999983906746,1.0543500185012817
1725956256139030300,16.3330302734375,0.7478625178337097,-0.22398750483989716,0.9713000059127808
1725956256157764600,16.3517646484375,0.4852375090122223,-0.2924624979496002,0.8478249907493591
1725956256176499500,16.37049951171875,0.3031874895095825,-0.30098751187324524,0.7330124974250793
1725956256195234300,16.389234375,0.2616625130176544,-0.3302749991416931,0.7379624843597412
1725956256213968600,16.40796875,0.22384999692440033,-0.3315125107765198,0.9053000211715698
1725956256232703500,16.426703369140625,0.20666250586509705,-0.16046249866485596,0.9833999872207642
1725956256251438000,16.44543798828125,0.19442500174045563,-0.19827499985694885,0.8490625023841858
1725956256270172700,16.464172607421876,0.21642500162124634,-0.22769999504089355,0.6254875063896179
1725956256288907300,16.4829072265625,0.23361249268054962,-0.1494625061750412,0.6621999740600586
1725956256307642000,16.50164208984375,0.17242500185966492,-0.08717499673366547,0.7182999849319458
1725956256326376700,16.520376708984376,0.08579999953508377,0.0411125011742115,0.5997750163078308
1725956256345111300,16.539111328125,-0.0009624999947845936,0.171875,0.4081000089645386
1725956256363846000,16.557845947265626,-0.08167500048875809,0.0411125011742115,0.33838748931884766
1725956256382580700,16.576580810546876,-0.1354375034570694,-0.13846249878406525,0.29315000772476196
1725956256401315300,16.5953154296875,-0.14272500574588776,-0.1396999955177307,0.210099995136261
1725956256420050000,16.6140498046875,-0.14643749594688416,-0.050462499260902405,0.17833749949932098
1725956256438784800,16.63278466796875,-0.13296249508857727,-0.02488750033080578,0.19304999709129333
1725956256457519400,16.651519287109377,-0.17201249301433563,-0.23127499222755432,0.23704999685287476
1725956256476254000,16.67025390625,-0.18548749387264252,-0.47437500953674316,0.2675749957561493
1725956256494988800,16.68898876953125,-0.1317249983549118,-0.37798750400543213,0.2578125
1725956256513723400,16.707723388671877,-0.07672499865293503,-0.09446249902248383,0.17957499623298645
1725956256532458000,16.7264580078125,-0.08772499859333038,-0.08346249908208847,0.11604999750852585
1725956256551192800,16.74519287109375,-0.10243749618530273,-0.06888750195503235,0.06833750009536743
1725956256569927400,16.763927490234376,-0.1377750039100647,-0.023649999871850014,0.018287500366568565
1725956256588662000,16.782662109375,-0.14396250247955322,0.006874999962747097,-0.057475000619888306
1725956256607396600,16.801396728515623,-0.12443749606609344,0.010587500408291817,-0.09404999762773514
1725956256626131200,16.820131103515624,-0.08167500048875809,0.025299999862909317,-0.10257499665021896
1725956256644866000,16.838865966796874,-0.05115000158548355,0.013062499463558197,-0.1050499975681305
1725956256663600600,16.8576005859375,-0.014437500387430191,0.015399999916553497,-0.12223749607801437
1725956256682335500,16.87633544921875,-0.0034374999813735485,0.04235000163316727,-0.1527625024318695
1725956256701069800,16.89506982421875,-0.015675000846385956,0.028875000774860382,-0.15757499635219574
1725956256719804700,16.9138046875,-0.03148749843239784,-0.050462499260902405,-0.12952500581741333
1725956256738539500,16.93253955078125,-0.037675000727176666,-0.10793749988079071,-0.09776250272989273
1725956256757273900,16.95127392578125,-0.04496249929070473,-0.10188750177621841,-0.10752499848604202
1725956256776008700,16.9700087890625,-0.05348749831318855,-0.08346249908208847,-0.09281250089406967
1725956256794743300,16.988743408203124,-0.0644875019788742,-0.09941250085830688,-0.06104999780654907
1725956256813478000,17.007477783203125,-0.05967500060796738,-0.08346249908208847,-0.035475000739097595
1725956256832212500,17.02621240234375,-0.027912499383091927,-0.052937500178813934,0.002474999986588955
1725956256850947300,17.044947265625,-0.013199999928474426,-0.060224998742341995,0.02199999988079071
1725956256869682000,17.063681884765625,-0.018149999901652336,-0.07617499679327011,0.037812501192092896
1725956256888416500,17.08241650390625,-0.008387500420212746,-0.03946249932050705,0.05128749832510948
1725956256907151400,17.1011513671875,0.007562499959021807,-0.023649999871850014,0.05376249924302101
1725956256925886000,17.119885986328125,0.016087500378489494,-0.026124998927116394,0.047575000673532486
1725956256944620500,17.13862060546875,0.028324998915195465,-0.04441250115633011,0.06599999964237213
1725956256963355400,17.15735546875,0.028324998915195465,-0.06146249920129776,0.08057499676942825
1725956256982090000,17.176090087890625,0.02461249940097332,-0.028462499380111694,0.057337500154972076
1725956257000824600,17.194824462890626,0.01484999991953373,-0.011412499472498894,0.030524998903274536
1725956257019559200,17.21355908203125,0.008799999952316284,-0.028462499380111694,0.0317624993622303
1725956257038294000,17.2322939453125,0.013612499460577965,-0.04688749834895134,0.04647500067949295
1725956257057028600,17.251028564453126,0.013612499460577965,-0.060224998742341995,0.05128749832510948
1725956257075763200,17.26976318359375,0.01251249946653843,-0.05169999971985817,0.04399999976158142
1725956257094498000,17.288498046875,0.01251249946653843,-0.03712499886751175,0.03657500073313713
1725956257113232600,17.307232666015626,0.01251249946653843,-0.004124999977648258,0.032999999821186066
1725956257131967200,17.32596728515625,0.010037500411272049,0.009349999949336052,0.035475000739097595
1725956257150701800,17.344701904296876,0.016087500378489494,0.013062499463558197,0.03423750028014183
1725956257169436700,17.363436767578126,0.018562499433755875,-0.0004124999977648258,0.05623750016093254
1725956257188171300,17.382171142578127,0.01732499897480011,-0.004124999977648258,0.07576250284910202
1725956257206905900,17.40090576171875,0.006324999965727329,0.004399999976158142,0.0635249987244606
1725956257225640700,17.419640625,0.011274999938905239,0.03258749842643738,0.05128749832510948
1725956257244375300,17.438375244140627,0.01484999991953373,0.03616249933838844,0.06476250290870667
1725956257263110000,17.45710986328125,0.023375000804662704,0.004399999976158142,0.11357499659061432
1725956257281844500,17.475844482421873,0.016087500378489494,-0.09569999575614929,0.17710000276565552
1725956257300579300,17.494579345703126,0.002612499985843897,-0.11769999563694,0.22728750109672546
1725956257319314000,17.51331396484375,-0.018149999901652336,-0.10064999759197235,0.18328750133514404
1725956257338048500,17.532048583984373,-0.04124999791383743,-0.06517499685287476,0.08799999952316284
1725956257356783400,17.550783447265626,-0.037675000727176666,0.0008249999955296516,0.03904999792575836
1725956257375517700,17.569517578125,-0.013199999928474426,0.05939999967813492,0.0317624993622303
1725956257394252500,17.58825244140625,0.005087499972432852,0.04606249928474426,0.04028749838471413
1725956257412987400,17.6069873046875,0.011274999938905239,0.03258749842643738,0.04881250113248825
1725956257431721700,17.6257216796875,0.008799999952316284,0.026399999856948853,0.04881250113248825
1725956257450456600,17.64445654296875,0.006324999965727329,-0.006462499964982271,0.020762499421834946
1725956257469191200,17.663191162109374,0.021037500351667404,0.011824999935925007,0
1725956257487925800,17.68192578125,0.025849999859929085,0.016637500375509262,0
1725956257506660600,17.70066064453125,0.01732499897480011,-0.0004124999977648258,0.015812499448657036
1725956257525395200,17.719395263671874,0.008799999952316284,-0.0004124999977648258,0.0170499999076128
1725956257544129800,17.7381298828125,-0.004674999974668026,-0.008937500417232513,0.0037124999798834324
1725956257562864600,17.75686474609375,-0.004674999974668026,-0.012649999931454659,0.006049999967217445
1725956257581599200,17.77559912109375,0.0038499999791383743,0.006874999962747097,0.0085249999538064
1725956257600333800,17.794333740234375,0.018562499433755875,0.03506249934434891,0.010999999940395355
1725956257619068400,17.813068359375,0.016087500378489494,0.03987500071525574,-0.002474999986588955
1725956257637803000,17.831802978515626,-0.0009624999947845936,0.03135000169277191,-0.015949999913573265
1725956257656537900,17.850537841796875,-0.015675000846385956,0.014299999922513962,-0.0317624993622303
1725956257675272400,17.8692724609375,-0.021724998950958252,-0.005362499970942736,-0.05128749832510948
1725956257694007300,17.88800732421875,-0.008387500420212746,0.020349999889731407,-0.05004999786615372
1725956257712742000,17.906741943359375,0.005087499972432852,0.013062499463558197,-0.032999999821186066
1725956257731476500,17.9254765625,0.007562499959021807,-0.004124999977648258,-0.0012374999932944775
1725956257750211300,17.94421142578125,0.016087500378489494,0.006874999962747097,0.03423750028014183
1725956257768946000,17.96294580078125,0.02461249940097332,0.014299999922513962,0.05857500061392784
1725956257787680500,17.981680419921876,0.03203750029206276,0.0032999999821186066,0.07081250101327896
1725956257806415400,18.000415283203125,0.025849999859929085,-0.007699999958276749,0.06228749826550484
1725956257825150000,18.01914990234375,0.007562499959021807,-0.02488750033080578,0.037812501192092896
1725956257843884500,18.037884521484376,0.011274999938905239,0.0056374999694526196,0.02447500079870224
1725956257862619400,18.056619384765625,0.007562499959021807,0.009349999949336052,0.01347499992698431
1725956257881354000,18.07535400390625,0.002612499985843897,-0.007699999958276749,0.004812499973922968
1725956257900088600,18.094088623046876,-0.005912499967962503,-0.005362499970942736,-0.010999999940395355
1725956257918823400,18.112823486328125,-0.007149999961256981,0.009349999949336052,-0.020762499421834946
1725956257937558300,18.131558349609374,-0.005912499967962503,0.009349999949336052,-0.03423750028014183
1725956257956292900,18.15029296875,-0.0034374999813735485,-0.0028874999843537807,-0.02199999988079071
1725956257975027500,18.16902734375,-0.002199999988079071,-0.015124999918043613,-0.006187499966472387
1725956257993762300,18.18776220703125,0.005087499972432852,-0.006462499964982271,0.00976249948143959
1725956258012497000,18.206496826171875,0.010037500411272049,0.010587500408291817,0.004812499973922968
1725956258031231500,18.2252314453125,0.007562499959021807,0.026399999856948853,0.00976249948143959
1725956258049966300,18.24396630859375,0.0038499999791383743,0.026399999856948853,0.023237500339746475
1725956258068700700,18.26270068359375,-0.002199999988079071,0.011824999935925007,0.02928750030696392
1725956258087435500,18.281435546875,0.0015124999918043613,0.026399999856948853,0.037812501192092896
1725956258106170000,18.300170166015626,0.0015124999918043613,0.015399999916553497,0.03904999792575836
1725956258124904700,18.31890478515625,0.005087499972432852,0.020349999889731407,0.045237500220537186
1725956258143639600,18.3376396484375,0.008799999952316284,0.017875000834465027,0.045237500220537186
1725956258162374100,18.3563740234375,0.0002749999985098839,0.010587500408291817,0.032999999821186066
1725956258181109000,18.37510888671875,-0.004674999974668026,0.017875000834465027,0.02199999988079071
1725956258199843600,18.393843505859376,0.007562499959021807,0.019112499430775642,0.030524998903274536
1725956258218578200,18.412578125,0.02708750031888485,0.010587500408291817,0.032999999821186066
1725956258237313000,18.43131298828125,0.028324998915195465,0.022824998944997787,0.028049999848008156
1725956258256047400,18.45004736328125,0.01251249946653843,0.022824998944997787,0.015812499448657036
1725956258274782200,18.4687822265625,0.0038499999791383743,0.026399999856948853,-0.00494999997317791
1725956258293516800,18.487516845703126,0.006324999965727329,0.03739999979734421,-0.023237500339746475
1725956258312251400,18.50625146484375,0.006324999965727329,0.019112499430775642,-0.04028749838471413
1725956258330986200,18.524986328125,0.008799999952316284,0.013062499463558197,-0.03904999792575836
1725956258349720800,18.543720947265626,0.013612499460577965,0.013062499463558197,0
1725956258368455400,18.562455322265624,0.006324999965727329,0.024062499403953552,0.13928750157356262
1725956258387190300,18.581190185546873,0.01732499897480011,0.04235000163316727,0.13433749973773956
1725956258405924900,18.5999248046875,0.002612499985843897,-0.057887498289346695,0.08676250278949738
1725956258424659500,18.618659423828124,-0.009487500414252281,-0.07617499679327011,0.007287499960511923
1725956258443394600,18.63739453125,-0.013199999928474426,-0.018699999898672104,-0.042762499302625656
1725956258462129200,18.656129150390626,-0.03396249935030937,0.008112499490380287,0.002474999986588955
